File: raw data/Dataset_2/Ferrowodginite/Ferrowodginite__R120166__Raman__780__0__unoriented__Raman_Data_Processed__37255.txt
30, 0.0
32, 0.0
34, 0.0
36, 0.0
38, 0.0
40, 0.0
42, 0.0
44, 0.0
46, 0.0
48, 0.0
50, 0.0
52, 0.0
54, 0.0
56, 0.0
58, 0.0
60, 0.0
62, 0.0
64, 0.0
66, 0.0
68, 0.0
70, 0.0
72, 0.0
74, 0.0
76, 0.0
78, 0.0
80, 0.0
82, 0.0
84, 0.0
86, 0.0
88, 0.0
90, 0.0
92, 0.0
94, 0.0
96, 0.0
98, 0.0
100, 0.0
102, 0.0
104, 0.0
106, 0.0
108, 0.0
110, 0.0
112, 0.0
114, 0.0
116, 0.0
118, 0.0
120, 0.0
122, 0.0
124, 0.0
126, 0.0
128, 0.0
130, 0.0
132, 0.0
134, 0.0
136, 0.0
138, 0.0
140, 0.0
142, 0.0
144, 0.0
146, 0.0
148, 0.0
150, 0.0
152, 0.0
154, 0.0
156, 0.0
158, 0.0
160, 0.0
162, 0.0
164, 0.0
166, 0.0
168, 0.0
170, 0.0
172, 0.0
174, 0.0
176, 0.0
178, 0.0
180, 0.0
182, 0.0
184, 0.0
186, 0.0
188.0, 0.0174576
190.0, 0.0051942
192.0, 0.0177512
194.0, 0.00464264
196.0, 0.0090376
198.0, 0.00398302
200.0, 0.0185809
202.0, 0.0398088
204.0, 0.0404487
206.0, 0.0676823
208.0, 0.0831224
210.0, 0.114592
212.0, 0.148269
214.0, 0.172161
216.0, 0.218581
218.0, 0.227243
220.0, 0.299079
222.0, 0.306561
224.0, 0.345691
226.0, 0.322466
228.0, 0.295103
230.0, 0.32185
232.0, 0.336553
234.0, 0.347171
236.0, 0.320766
238.0, 0.348576
240.0, 0.304433
242.0, 0.2833
244.0, 0.287262
246.0, 0.232552
248.0, 0.237887
250.0, 0.192694
252.0, 0.163084
254.0, 0.13706
256.0, 0.13743
258.0, 0.100971
260.0, 0.124495
262.0, 0.115849
264.0, 0.101508
266.0, 0.118149
268.0, 0.149862
270.0, 0.201513
272.0, 0.245237
274.0, 0.312655
276.0, 0.371422
278.0, 0.442451
280.0, 0.534145
282.0, 0.621864
284.0, 0.668323
286.0, 0.701565
288.0, 0.688625
290.0, 0.728547
292.0, 0.709877
294.0, 0.669379
296.0, 0.642852
298.0, 0.645229
300.0, 0.633671
302.0, 0.635222
304.0, 0.610927
306.0, 0.606847
308.0, 0.548519
310.0, 0.493166
312.0, 0.404572
314.0, 0.343768
316.0, 0.259191
318.0, 0.174207
320.0, 0.122386
322.0, 0.0646092
324.0, 0.0438543
326.0, 0.0116003
328.0, 0.00493897
330.0, 0.0114063
332.0, 0.0234458
334.0, 0.0317677
336.0, 0.0144627
338.0, 0.0048317
340.0, 0.00373858
342.0, 0.0147676
344.0, 0.0160489
346.0, 0.012707
348.0, 0.0111236
350.0, 0.00623727
352.0, 0.0215259
354.0, 0.0339334
356.0, 0.085382
358.0, 0.0926347
360.0, 0.126217
362.0, 0.136155
364.0, 0.14154
366.0, 0.177063
368.0, 0.227465
370.0, 0.241528
372.0, 0.293959
374.0, 0.320358
376.0, 0.377962
378.0, 0.42218
380.0, 0.459929
382.0, 0.49971
384.0, 0.541221
386.0, 0.576726
388.0, 0.592352
390.0, 0.625307
392.0, 0.654841
394.0, 0.682123
396.0, 0.684517
398.0, 0.708391
400.0, 0.699169
402.0, 0.702264
404.0, 0.679935
406.0, 0.681172
408.0, 0.635836
410.0, 0.613361
412.0, 0.57977
414.0, 0.558117
416.0, 0.504527
418.0, 0.469812
420.0, 0.441267
422.0, 0.372462
424.0, 0.346209
426.0, 0.312766
428.0, 0.264399
430.0, 0.223634
432.0, 0.215405
434.0, 0.168629
436.0, 0.160041
438.0, 0.148802
440.0, 0.113136
442.0, 0.118138
444.0, 0.117157
446.0, 0.0881647
448.0, 0.0896576
450.0, 0.0779261
452.0, 0.0810271
454.0, 0.0602493
456.0, 0.0848675
458.0, 0.077909
460.0, 0.0754279
462.0, 0.086823
464.0, 0.0767522
466.0, 0.065675
468.0, 0.101173
470.0, 0.106152
472.0, 0.139042
474.0, 0.0968894
476.0, 0.0927246
478.0, 0.0995997
480.0, 0.124899
482.0, 0.152941
484.0, 0.172014
486.0, 0.109905
488.0, 0.134492
490.0, 0.110555
492.0, 0.117316
494.0, 0.0966746
496.0, 0.0718569
498.0, 0.0832509
500.0, 0.0557049
502.0, 0.0874436
504.0, 0.0586144
506.0, 0.0476393
508.0, 0.0506659
510.0, 0.0550443
512.0, 0.0543543
514.0, 0.0469992
516.0, 0.0135232
518.0, 0.0365952
520.0, 0.0193273
522.0, 0.0109219
524.0, 0.00553612
526.0, 0.00846212
528.0, 0.00171602
530.0, 0.011598
532.0, 0.0373699
534.0, 0.0249323
536.0, 0.0256761
538.0, 0.014711
540.0, 0.0115039
542.0, 0.00669215
544.0, 0.0010582
546.0, 0.00624129
548.0, 0.0400728
550.0, 0.0563554
552.0, 0.0601507
554.0, 0.0751945
556.0, 0.101653
558.0, 0.109725
560.0, 0.134236
562.0, 0.116945
564.0, 0.153694
566.0, 0.165797
568.0, 0.164543
570.0, 0.174927
572.0, 0.18225
574.0, 0.187795
576.0, 0.197986
578.0, 0.203339
580.0, 0.19914
582.0, 0.21006
584.0, 0.227619
586.0, 0.24507
588.0, 0.225216
590.0, 0.214523
592.0, 0.205101
594.0, 0.174144
596.0, 0.163117
598.0, 0.162919
600.0, 0.162832
602.0, 0.180074
604.0, 0.175992
606.0, 0.200896
608.0, 0.199898
610.0, 0.184033
612.0, 0.195821
614.0, 0.215126
616.0, 0.235693
618.0, 0.236751
620.0, 0.25592
622.0, 0.233959
624.0, 0.268617
626.0, 0.27542
628.0, 0.276691
630.0, 0.274043
632.0, 0.292796
634.0, 0.292981
636.0, 0.306183
638.0, 0.317106
640.0, 0.325629
642.0, 0.327424
644.0, 0.325622
646.0, 0.338606
648.0, 0.310768
650.0, 0.299353
652.0, 0.313663
654.0, 0.302283
656.0, 0.292563
658.0, 0.280392
660.0, 0.273023
662.0, 0.237353
664.0, 0.239511
666.0, 0.223392
668.0, 0.218482
670.0, 0.202442
672.0, 0.185912
674.0, 0.169764
676.0, 0.146922
678.0, 0.128275
680.0, 0.121321
682.0, 0.102658
684.0, 0.0869942
686.0, 0.0504992
688.0, 0.0553646
690.0, 0.0299607
692.0, 0.0190874
694.0, 0.0216658
696.0, 0.00763483
698.0, 0.00832424
700.0, 0.0331414
702.0, 0.0272115
704.0, 0.0131172
706.0, 0.0222341
708.0, 0.029137
710.0, 0.0242439
712.0, 0.0113919
714.0, 0.0388995
716.0, 0.0106462
718.0, 0.0174404
720.0, 0.010572
722.0, 0.0307455
724.0, 0.0376889
726.0, 0.0573017
728.0, 0.0522864
730.0, 0.0738821
732.0, 0.087896
734.0, 0.0935217
736.0, 0.0981263
738.0, 0.12631
740.0, 0.127591
742.0, 0.123732
744.0, 0.162996
746.0, 0.134925
748.0, 0.140181
750.0, 0.172096
752.0, 0.171757
754.0, 0.178925
756.0, 0.179008
758.0, 0.17891
760.0, 0.183728
762.0, 0.184592
764.0, 0.197548
766.0, 0.20058
768.0, 0.187733
770.0, 0.199069
772.0, 0.203596
774.0, 0.207628
776.0, 0.18874
778.0, 0.195054
780.0, 0.188487
782.0, 0.19174
784.0, 0.193622
786.0, 0.181758
788.0, 0.206956
790.0, 0.210771
792.0, 0.222805
794.0, 0.197885
796.0, 0.213893
798.0, 0.201962
800.0, 0.199358
802.0, 0.212954
804.0, 0.216027
806.0, 0.23289
808.0, 0.247958
810.0, 0.257747
812.0, 0.294165
814.0, 0.297954
816.0, 0.320813
818.0, 0.316073
820.0, 0.368973
822.0, 0.399569
824.0, 0.409117
826.0, 0.441728
828.0, 0.478031
830.0, 0.50026
832.0, 0.525653
834.0, 0.546844
836.0, 0.570512
838.0, 0.605132
840.0, 0.627101
842.0, 0.685215
844.0, 0.714156
846.0, 0.753129
848.0, 0.795602
850.0, 0.84914
852.0, 0.89744
854.0, 0.915004
856.0, 0.958386
858.0, 0.977813
860.0, 0.970916
862.0, 0.998603
864.0, 0.961664
866.0, 0.938891
868.0, 0.870055
870.0, 0.808333
872.0, 0.719016
874.0, 0.640721
876.0, 0.544501
878.0, 0.449827
880.0, 0.362655
882.0, 0.285457
884.0, 0.23332
886.0, 0.177771
888.0, 0.101245
890.0, 0.0712329
892.0, 0.0371763
894.0, 0.0163078
896.0, 0.00948628
898.0, 0.0106468
900.0, 0.0106108
902.0, 0.0329126
904.0, 0.0273488
906.0, 0.0236799
908.0, 0.0262321
910.0, 0.0210585
912.0, 0.0146185
914.0, 0.0040549
916.0, 0.00582451
918.0, 0.0207034
920.0, 0.0136146
922.0, 0.0193092
924.0, 0.024031
926.0, 0.0244
928.0, 0.0502377
930.0, 0.0549808
932.0, 0.0611921
934.0, 0.067358
936.0, 0.0832912
938.0, 0.0812123
940.0, 0.0971257
942.0, 0.0906316
944.0, 0.108652
946.0, 0.110667
948.0, 0.120185
950.0, 0.125232
952.0, 0.123195
954.0, 0.131384
956.0, 0.139425
958.0, 0.147323
960.0, 0.140732
962.0, 0.131161
964.0, 0.1254
966.0, 0.125349
968.0, 0.102861
970.0, 0.103247
972.0, 0.0873716
974.0, 0.083386
976.0, 0.0840427
978.0, 0.0820662
980.0, 0.0736045
982.0, 0.0824043
984.0, 0.0749534
986.0, 0.0634922
988.0, 0.068972
990.0, 0.0614472
992.0, 0.0537366
994.0, 0.057791
996.0, 0.0598197
998.0, 0.0581998
1000.0, 0.0601376
1002.0, 0.0472311
1004.0, 0.0516319
1006.0, 0.0505165
1008.0, 0.0505523
1010.0, 0.0289759
1012.0, 0.045411
1014.0, 0.0308586
1016.0, 0.0349307
1018.0, 0.0427325
1020.0, 0.0302819
1022.0, 0.0363194
1024.0, 0.0335143
1026.0, 0.0288104
1028.0, 0.029075
1030.0, 0.0333604
1032.0, 0.0186296
1034.0, 0.0220439
1036.0, 0.00639719
1038.0, 0.0163859
1040.0, 0.0149776
1042.0, 0.0249786
1044.0, 0.0085662
1046.0, 0.0137711
1048.0, 0.0172882
1050.0, 0.00449866
1052.0, 0.00123787
1054.0, 0.0237189
1056.0, 0.0209711
1058.0, 0.0145835
1060.0, 0.0187714
1062.0, 0.0107876
1064.0, 0.00916855
1066.0, 0.000240917
1068.0, 0.0114169
1070.0, 0.0206057
1072.0, 0.0100319
1074.0, 0.00495434
1076.0, 0.00923273
1078.0, 0.00624998
1080.0, 0.00993832
1082.0, 0.018333
1084.0, 0.00936934
1086.0, 0.00803325
1088.0, 0.0161412
1090.0, 0.00492377
1092.0, 0.0110986
1094.0, 0.0157025
1096.0, 0.00320749
1098.0, 0.00343219
1100.0, 0.0117815
1102.0, 0.00298333
1104.0, 0.00223577
1106.0, 0.00145256
1108.0, 0.0035246
1110.0, 0.00421858
1112.0, 0.00105329
1114.0, 0.00459131
1116.0, 0.00326908
1118.0, 0.00600801
1120.0, 0.0101481
1122.0, 0.00452221
1124.0, 0.00126822
1126.0, 0.0089367
1128.0, 0.0146032
1130.0, 0.00663552
1132.0, 0.00315328
1134.0, 0.00272741
1136.0, 0.00279902
1138.0, 0.00464956
1140.0, 0.00418486
1142.0, 0.00767793
1144.0, 0.00342838
1146.0, 0.0174365
1148.0, 0.0106776
1150.0, 0.0073434
1152.0, 0.0184567
1154.0, 0.00344956
1156.0, 0.0143036
1158.0, 0.0128637
1160.0, 0.0274881
1162.0, 0.0220259
1164.0, 0.0119626
1166.0, 0.0231434
1168.0, 0.0252428
1170.0, 0.0227987
1172.0, 0.0239654
1174.0, 0.0131477
1176.0, 0.0054389
1178.0, 0.0257631
1180.0, 0.00822319
1182.0, 0.012506
1184.0, 0.0179629
1186.0, 0.0169045
1188.0, 0.00967761
1190.0, 0.0275512
1192.0, 0.0181445
1194.0, 0.0158077
1196.0, 0.0128373
1198.0, 0.0211154
1200.0, 0.0229946
1202.0, 0.0169758
1204.0, 0.0137248
1206.0, 0.0151832
1208.0, 0.0132101
1210.0, 0.00552246
1212.0, 0.0114678
1214.0, 0.0118779
1216.0, 0.0174486
1218.0, 0.00703954
1220.0, 0.0110064
1222.0, 0.00702932
1224.0, 0.0204855
1226.0, 0.020678
1228.0, 0.00464357
1230.0, 0.00654767
1232.0, 0.00230614
1234.0, 0.00986378
1236.0, 0.0158803
1238.0, 0.0152984
1240.0, 0.00690985
1242.0, 0.00113609
1244.0, 0.0137606
1246.0, 0.00196811
1248.0, 0.0145842
1250.0, 0.00248269
1252.0, 0.0174696
1254.0, 0.00235251
1256.0, 0.0167491
1258.0, 0.0185481
1260.0, 0.0188935
1262.0, 0.0387485
1264.0, 0.0323595
1266.0, 0.0127655
1268.0, 0.00490419
1270.0, 0.00955981
1272.0, 0.00729757
1274.0, 0.00836971
1276.0, 0.00876666
1278.0, 0.000409397
1280.0, 0.0125276
1282.0, 0.000121733
1284, 0.0
1286, 0.0
1288, 0.0
1290, 0.0
1292, 0.0
1294, 0.0
1296, 0.0
1298, 0.0
1300, 0.0
1302, 0.0
1304, 0.0
1306, 0.0
1308, 0.0
1310, 0.0
1312, 0.0
1314, 0.0
1316, 0.0
1318, 0.0
1320, 0.0
1322, 0.0
1324, 0.0
1326, 0.0
1328, 0.0
1330, 0.0
1332, 0.0
1334, 0.0
1336, 0.0
1338, 0.0
1340, 0.0
1342, 0.0
1344, 0.0
1346, 0.0
1348, 0.0
1350, 0.0
1352, 0.0
1354, 0.0
1356, 0.0
1358, 0.0
1360, 0.0
1362, 0.0
1364, 0.0
1366, 0.0
1368, 0.0
1370, 0.0
1372, 0.0
1374, 0.0
1376, 0.0
1378, 0.0
1380, 0.0
1382, 0.0
1384, 0.0
1386, 0.0
1388, 0.0
1390, 0.0
1392, 0.0
1394, 0.0
1396, 0.0
1398, 0.0
1400, 0.0
1402, 0.0
1404, 0.0
1406, 0.0
1408, 0.0
1410, 0.0
1412, 0.0
1414, 0.0
1416, 0.0
1418, 0.0
1420, 0.0
1422, 0.0
1424, 0.0
1426, 0.0
1428, 0.0
1430, 0.0
1432, 0.0
1434, 0.0
1436, 0.0
1438, 0.0
1440, 0.0
1442, 0.0
1444, 0.0
1446, 0.0
1448, 0.0
1450, 0.0
1452, 0.0
1454, 0.0
1456, 0.0
1458, 0.0
1460, 0.0
1462, 0.0
1464, 0.0
1466, 0.0
1468, 0.0
1470, 0.0
1472, 0.0
1474, 0.0
1476, 0.0
1478, 0.0
1480, 0.0
1482, 0.0
1484, 0.0
1486, 0.0
1488, 0.0
1490, 0.0
1492, 0.0
1494, 0.0
1496, 0.0
1498, 0.0
1500, 0.0
1502, 0.0
1504, 0.0
1506, 0.0
1508, 0.0
1510, 0.0
1512, 0.0
1514, 0.0
1516, 0.0
1518, 0.0
1520, 0.0
1522, 0.0
1524, 0.0
1526, 0.0
1528, 0.0
1530, 0.0
1532, 0.0
1534, 0.0
1536, 0.0
1538, 0.0
1540, 0.0
1542, 0.0
1544, 0.0
1546, 0.0
1548, 0.0
1550, 0.0
1552, 0.0
1554, 0.0
1556, 0.0
1558, 0.0
1560, 0.0
1562, 0.0
1564, 0.0
1566, 0.0
1568, 0.0
1570, 0.0
1572, 0.0
1574, 0.0
1576, 0.0
1578, 0.0
1580, 0.0
1582, 0.0
1584, 0.0
1586, 0.0
1588, 0.0
1590, 0.0
1592, 0.0
1594, 0.0
1596, 0.0
1598, 0.0
1599, 0.0