File: raw data/Dataset_2/Ferrowodginite/Ferrowodginite__R120166__Raman__532__0__unoriented__Raman_Data_Processed__37253.txt
30, 0.0
32, 0.0
34, 0.0
36, 0.0
38, 0.0
40, 0.0
42, 0.0
44, 0.0
46, 0.0
48, 0.0
50, 0.0
52, 0.0
54, 0.0
56, 0.0
58, 0.0
60, 0.0
62, 0.0
64, 0.0
66, 0.0
68, 0.0
70, 0.0
72, 0.0
74, 0.0
76, 0.0
78, 0.0
80, 0.0
82, 0.0
84, 0.0
86, 0.0
88, 0.0
90, 0.0
92, 0.0
94, 0.0
96, 0.0
98, 0.0
100, 0.0
102, 0.0
104, 0.0
106, 0.0
108, 0.0
110, 0.0
112, 0.0
114, 0.0
116, 0.0
118, 0.0
120, 0.0
122, 0.0
124, 0.0
126, 0.0
128, 0.0
130, 0.0
132, 0.0
134, 0.0
136, 0.0
138, 0.0
140, 0.0
142, 0.0
144, 0.0
146, 0.0
148, 0.0
150, 0.0
152, 0.0
154, 0.0
156, 0.0
158, 0.0
160, 0.0
162, 0.0
164, 0.0
166, 0.0
168, 0.0
170, 0.0
172, 0.0
174, 0.0
176, 0.0
178, 0.0
180, 0.0
182, 0.0
184, 0.0
186, 0.0
188, 0.0
190, 0.0
192, 0.0
194, 0.0
196.0, 0.00135041
198.0, 0.00185397
200.0, 0.00727199
202.0, 0.007114
204.0, 0.0124012
206.0, 0.00509715
208.0, 0.0354558
210.0, 0.0454453
212.0, 0.0567491
214.0, 0.0666157
216.0, 0.0924625
218.0, 0.0742306
220.0, 0.0722164
222.0, 0.0638981
224.0, 0.0606257
226.0, 0.0580095
228.0, 0.0774591
230.0, 0.0672211
232.0, 0.0943267
234.0, 0.0591303
236.0, 0.0750473
238.0, 0.0770039
240.0, 0.0660479
242.0, 0.0843581
244.0, 0.0857926
246.0, 0.0906689
248.0, 0.0823804
250.0, 0.0791072
252.0, 0.0988602
254.0, 0.0913423
256.0, 0.0980004
258.0, 0.114904
260.0, 0.139079
262.0, 0.145654
264.0, 0.159875
266.0, 0.197778
268.0, 0.237229
270.0, 0.297871
272.0, 0.353729
274.0, 0.421382
276.0, 0.495062
278.0, 0.584583
280.0, 0.676392
282.0, 0.747023
284.0, 0.814731
286.0, 0.851363
288.0, 0.837639
290.0, 0.797233
292.0, 0.749724
294.0, 0.66635
296.0, 0.60426
298.0, 0.536771
300.0, 0.476484
302.0, 0.410249
304.0, 0.379005
306.0, 0.334507
308.0, 0.295473
310.0, 0.251102
312.0, 0.22059
314.0, 0.199551
316.0, 0.148504
318.0, 0.129543
320.0, 0.0960367
322.0, 0.0635963
324.0, 0.045324
326.0, 0.0353101
328.0, 0.0127608
330.0, 0.0159886
332.0, 0.00585308
334.0, 0.00200301
336.0, 0.00888093
338.0, 0.0152677
340.0, 0.00169428
342.0, 0.0148782
344.0, 0.0126007
346.0, 0.0184557
348.0, 0.0131265
350.0, 0.0118213
352.0, 0.0088779
354.0, 0.00205435
356.0, 0.0230443
358.0, 0.0270862
360.0, 0.0421022
362.0, 0.0425209
364.0, 0.0702969
366.0, 0.0980612
368.0, 0.12651
370.0, 0.133598
372.0, 0.169057
374.0, 0.203763
376.0, 0.234672
378.0, 0.295418
380.0, 0.321968
382.0, 0.37188
384.0, 0.408045
386.0, 0.446055
388.0, 0.521172
390.0, 0.546322
392.0, 0.596079
394.0, 0.633902
396.0, 0.657998
398.0, 0.679353
400.0, 0.697822
402.0, 0.715619
404.0, 0.70805
406.0, 0.708687
408.0, 0.675482
410.0, 0.669166
412.0, 0.629552
414.0, 0.590016
416.0, 0.536814
418.0, 0.489424
420.0, 0.439984
422.0, 0.378978
424.0, 0.348748
426.0, 0.290703
428.0, 0.245869
430.0, 0.230428
432.0, 0.186221
434.0, 0.164969
436.0, 0.138423
438.0, 0.14715
440.0, 0.11041
442.0, 0.106669
444.0, 0.104422
446.0, 0.0857987
448.0, 0.0824613
450.0, 0.0750353
452.0, 0.0731616
454.0, 0.0799043
456.0, 0.0774383
458.0, 0.0622452
460.0, 0.0734833
462.0, 0.0899266
464.0, 0.0696563
466.0, 0.0729986
468.0, 0.0736413
470.0, 0.0955843
472.0, 0.104312
474.0, 0.0958677
476.0, 0.108799
478.0, 0.114027
480.0, 0.136015
482.0, 0.134194
484.0, 0.125005
486.0, 0.136486
488.0, 0.130736
490.0, 0.139832
492.0, 0.162921
494.0, 0.159318
496.0, 0.144784
498.0, 0.146627
500.0, 0.16489
502.0, 0.137719
504.0, 0.161335
506.0, 0.140623
508.0, 0.126633
510.0, 0.137685
512.0, 0.130128
514.0, 0.10866
516.0, 0.100578
518.0, 0.103779
520.0, 0.0727079
522.0, 0.0714906
524.0, 0.049982
526.0, 0.0391789
528.0, 0.0150163
530.0, 0.00138446
532.0, 0.0106318
534.0, 0.00396528
536.0, 0.00342261
538.0, 0.0168489
540.0, 0.0148278
542.0, 0.00378658
544.0, 0.0225908
546.0, 0.0184651
548.0, 0.00347269
550.0, 0.00760797
552.0, 0.00768833
554.0, 0.000753586
556.0, 0.0274278
558.0, 0.0274566
560.0, 0.0386645
562.0, 0.0607846
564.0, 0.0481976
566.0, 0.0636193
568.0, 0.0667572
570.0, 0.0802157
572.0, 0.0912546
574.0, 0.103557
576.0, 0.0912634
578.0, 0.105548
580.0, 0.108869
582.0, 0.119383
584.0, 0.121601
586.0, 0.130102
588.0, 0.120367
590.0, 0.136904
592.0, 0.12335
594.0, 0.124493
596.0, 0.129746
598.0, 0.111145
600.0, 0.106303
602.0, 0.105847
604.0, 0.109367
606.0, 0.110027
608.0, 0.101641
610.0, 0.102446
612.0, 0.105992
614.0, 0.101305
616.0, 0.102327
618.0, 0.124791
620.0, 0.122547
622.0, 0.135149
624.0, 0.125449
626.0, 0.13086
628.0, 0.133919
630.0, 0.143205
632.0, 0.144817
634.0, 0.133865
636.0, 0.143004
638.0, 0.130205
640.0, 0.131489
642.0, 0.126051
644.0, 0.135852
646.0, 0.13711
648.0, 0.136308
650.0, 0.138595
652.0, 0.125627
654.0, 0.143312
656.0, 0.142781
658.0, 0.125577
660.0, 0.123533
662.0, 0.120697
664.0, 0.123238
666.0, 0.124352
668.0, 0.11073
670.0, 0.124478
672.0, 0.107558
674.0, 0.0972962
676.0, 0.109953
678.0, 0.0771924
680.0, 0.0680371
682.0, 0.0673486
684.0, 0.0665096
686.0, 0.0564879
688.0, 0.044455
690.0, 0.0390723
692.0, 0.028457
694.0, 0.0239936
696.0, 0.0166781
698.0, 0.0137829
700.0, 0.00229743
702.0, 0.00278441
704.0, 0.0190015
706.0, 0.0146442
708.0, 0.000496565
710.0, 0.0201906
712.0, 0.021187
714.0, 0.0170802
716.0, 0.0181223
718.0, 0.01799
720.0, 0.0123408
722.0, 0.00596084
724.0, 0.0121667
726.0, 0.0159481
728.0, 0.00800068
730.0, 0.0208946
732.0, 0.0233496
734.0, 0.0341161
736.0, 0.0291348
738.0, 0.0428432
740.0, 0.0421724
742.0, 0.0582654
744.0, 0.0576574
746.0, 0.0753036
748.0, 0.0634753
750.0, 0.0821899
752.0, 0.079227
754.0, 0.0822845
756.0, 0.0919396
758.0, 0.0890493
760.0, 0.0901313
762.0, 0.0952765
764.0, 0.110029
766.0, 0.114893
768.0, 0.112658
770.0, 0.116591
772.0, 0.121367
774.0, 0.130175
776.0, 0.141526
778.0, 0.138419
780.0, 0.127867
782.0, 0.133061
784.0, 0.139904
786.0, 0.146443
788.0, 0.136257
790.0, 0.162589
792.0, 0.15884
794.0, 0.168839
796.0, 0.165052
798.0, 0.172629
800.0, 0.179372
802.0, 0.185282
804.0, 0.192372
806.0, 0.204435
808.0, 0.222831
810.0, 0.235631
812.0, 0.248511
814.0, 0.295601
816.0, 0.31128
818.0, 0.311269
820.0, 0.34939
822.0, 0.375017
824.0, 0.401757
826.0, 0.42307
828.0, 0.443084
830.0, 0.488001
832.0, 0.505249
834.0, 0.533129
836.0, 0.578404
838.0, 0.608674
840.0, 0.62916
842.0, 0.679128
844.0, 0.708856
846.0, 0.739623
848.0, 0.781002
850.0, 0.819764
852.0, 0.844084
854.0, 0.878076
856.0, 0.933721
858.0, 0.959931
860.0, 0.982096
862.0, 0.990996
864.0, 0.98526
866.0, 0.972782
868.0, 0.960625
870.0, 0.916471
872.0, 0.840853
874.0, 0.771957
876.0, 0.680893
878.0, 0.594815
880.0, 0.499619
882.0, 0.406424
884.0, 0.328705
886.0, 0.265687
888.0, 0.192567
890.0, 0.13457
892.0, 0.0970794
894.0, 0.0575777
896.0, 0.0312984
898.0, 0.0204437
900.0, 0.00731246
902.0, 0.0104886
904.0, 0.0151561
906.0, 0.0230584
908.0, 0.0183289
910.0, 0.0274649
912.0, 0.00953998
914.0, 0.0193603
916.0, 0.0138332
918.0, 0.0110636
920.0, 0.00349269
922.0, 0.0140092
924.0, 0.00135886
926.0, 0.0200907
928.0, 0.0161882
930.0, 0.0143562
932.0, 0.0243807
934.0, 0.0261901
936.0, 0.0457296
938.0, 0.0351073
940.0, 0.0428402
942.0, 0.0377526
944.0, 0.0491006
946.0, 0.0435678
948.0, 0.0691727
950.0, 0.0582739
952.0, 0.0548876
954.0, 0.0741885
956.0, 0.0776661
958.0, 0.0729537
960.0, 0.0773294
962.0, 0.0750871
964.0, 0.0834287
966.0, 0.0806883
968.0, 0.075826
970.0, 0.073973
972.0, 0.0719488
974.0, 0.0656656
976.0, 0.0634872
978.0, 0.0486281
980.0, 0.0555678
982.0, 0.0455782
984.0, 0.047395
986.0, 0.0543132
988.0, 0.0426211
990.0, 0.0462873
992.0, 0.0393207
994.0, 0.0355741
996.0, 0.050138
998.0, 0.0409835
1000.0, 0.0425103
1002.0, 0.0261424
1004.0, 0.0439755
1006.0, 0.0314528
1008.0, 0.0348295
1010.0, 0.0349472
1012.0, 0.0303254
1014.0, 0.0303849
1016.0, 0.0212162
1018.0, 0.0358576
1020.0, 0.0260608
1022.0, 0.0204903
1024.0, 0.0118386
1026.0, 0.0205607
1028.0, 0.0188181
1030.0, 0.0194702
1032.0, 0.0197227
1034.0, 0.019409
1036.0, 0.00894114
1038.0, 0.00276652
1040.0, 0.0185255
1042.0, 0.00633617
1044.0, 0.0163117
1046.0, 0.00757524
1048.0, 0.0143401
1050.0, 0.00578819
1052.0, 0.0092617
1054.0, 0.00141883
1056.0, 0.00856597
1058.0, 0.0158134
1060.0, 0.00430755
1062.0, 0.00896709
1064.0, 0.00870479
1066.0, 0.00444627
1068.0, 0.00676164
1070.0, 0.00501506
1072.0, 0.010613
1074.0, 0.00765639
1076.0, 0.0013644
1078.0, 0.00590731
1080.0, 0.010813
1082.0, 0.0144557
1084.0, 0.0194466
1086.0, 0.00691405
1088.0, 0.00128331
1090.0, 0.00804345
1092.0, 0.00262318
1094.0, 0.0121839
1096.0, 0.0129693
1098.0, 0.00526053
1100.0, 0.00265021
1102.0, 0.000333949
1104.0, 0.00880961
1106.0, 0.00940579
1108.0, 0.00558092
1110.0, 0.00830087
1112.0, 0.00254234
1114.0, 0.00133374
1116.0, 0.00137626
1118.0, 0.00747421
1120.0, 0.00329205
1122.0, 0.00347754
1124.0, 0.00190174
1126.0, 0.00465437
1128.0, 0.00217364
1130.0, 0.00844078
1132.0, 0.00914566
1134.0, 0.00528964
1136.0, 0.00231393
1138.0, 0.00632822
1140.0, 0.00969261
1142.0, 0.00941463
1144.0, 0.0097742
1146.0, 0.00074269
1148.0, 0.00551714
1150.0, 0.000509177
1152.0, 0.00995534
1154.0, 0.00199963
1156.0, 0.00722896
1158.0, 0.000340038
1160.0, 0.006044
1162.0, 0.0151908
1164.0, 0.00756318
1166.0, 0.00453316
1168.0, 0.00642031
1170.0, 0.00643552
1172.0, 0.0185547
1174.0, 0.0029794
1176.0, 0.00790854
1178.0, 0.00632223
1180.0, 0.0120207
1182.0, 0.00421544
1184.0, 0.0172157
1186.0, 0.00538813
1188.0, 0.0121434
1190.0, 0.00590662
1192.0, 0.0122337
1194.0, 0.0167114
1196.0, 0.00769893
1198.0, 0.00724573
1200.0, 0.0029396
1202.0, 0.0151751
1204.0, 0.00997556
1206.0, 0.0179299
1208.0, 0.00922536
1210.0, 0.0103248
1212.0, 0.00790246
1214.0, 0.0167668
1216.0, 0.0161113
1218.0, 0.0123952
1220.0, 0.00136506
1222.0, 0.00955077
1224.0, 0.0213248
1226.0, 0.0155458
1228.0, 0.01801
1230.0, 0.00931547
1232.0, 0.0102528
1234.0, 0.0068369
1236.0, 0.018868
1238.0, 0.00421222
1240.0, 0.0164482
1242.0, 0.0137035
1244.0, 0.0034405
1246.0, 0.00674433
1248.0, 0.0046425
1250.0, 0.0130501
1252.0, 0.0131477
1254.0, 0.000642451
1256.0, 0.0107301
1258.0, 0.0138676
1260.0, 0.00261746
1262.0, 0.00918743
1264.0, 0.0114703
1266.0, 0.0022103
1268.0, 0.0154749
1270.0, 0.0126104
1272.0, 0.00716739
1274.0, 0.0130206
1276.0, 0.0219076
1278.0, 0.0179666
1280.0, 0.013785
1282.0, 0.0149702
1284.0, 0.012908
1286.0, 0.00911095
1288.0, 0.00766375
1290.0, 0.00571253
1292.0, 0.0146802
1294.0, 0.00915811
1296.0, 0.00732707
1298.0, 0.0133513
1300.0, 0.00190553
1302, 0.0
1304, 0.0
1306, 0.0
1308, 0.0
1310, 0.0
1312, 0.0
1314, 0.0
1316, 0.0
1318, 0.0
1320, 0.0
1322, 0.0
1324, 0.0
1326, 0.0
1328, 0.0
1330, 0.0
1332, 0.0
1334, 0.0
1336, 0.0
1338, 0.0
1340, 0.0
1342, 0.0
1344, 0.0
1346, 0.0
1348, 0.0
1350, 0.0
1352, 0.0
1354, 0.0
1356, 0.0
1358, 0.0
1360, 0.0
1362, 0.0
1364, 0.0
1366, 0.0
1368, 0.0
1370, 0.0
1372, 0.0
1374, 0.0
1376, 0.0
1378, 0.0
1380, 0.0
1382, 0.0
1384, 0.0
1386, 0.0
1388, 0.0
1390, 0.0
1392, 0.0
1394, 0.0
1396, 0.0
1398, 0.0
1400, 0.0
1402, 0.0
1404, 0.0
1406, 0.0
1408, 0.0
1410, 0.0
1412, 0.0
1414, 0.0
1416, 0.0
1418, 0.0
1420, 0.0
1422, 0.0
1424, 0.0
1426, 0.0
1428, 0.0
1430, 0.0
1432, 0.0
1434, 0.0
1436, 0.0
1438, 0.0
1440, 0.0
1442, 0.0
1444, 0.0
1446, 0.0
1448, 0.0
1450, 0.0
1452, 0.0
1454, 0.0
1456, 0.0
1458, 0.0
1460, 0.0
1462, 0.0
1464, 0.0
1466, 0.0
1468, 0.0
1470, 0.0
1472, 0.0
1474, 0.0
1476, 0.0
1478, 0.0
1480, 0.0
1482, 0.0
1484, 0.0
1486, 0.0
1488, 0.0
1490, 0.0
1492, 0.0
1494, 0.0
1496, 0.0
1498, 0.0
1500, 0.0
1502, 0.0
1504, 0.0
1506, 0.0
1508, 0.0
1510, 0.0
1512, 0.0
1514, 0.0
1516, 0.0
1518, 0.0
1520, 0.0
1522, 0.0
1524, 0.0
1526, 0.0
1528, 0.0
1530, 0.0
1532, 0.0
1534, 0.0
1536, 0.0
1538, 0.0
1540, 0.0
1542, 0.0
1544, 0.0
1546, 0.0
1548, 0.0
1550, 0.0
1552, 0.0
1554, 0.0
1556, 0.0
1558, 0.0
1560, 0.0
1562, 0.0
1564, 0.0
1566, 0.0
1568, 0.0
1570, 0.0
1572, 0.0
1574, 0.0
1576, 0.0
1578, 0.0
1580, 0.0
1582, 0.0
1584, 0.0
1586, 0.0
1588, 0.0
1590, 0.0
1592, 0.0
1594, 0.0
1596, 0.0
1598, 0.0
1599, 0.0