File: raw data/Dataset_2/Perovskite/Perovskite__R120121__Raman__532__0__unoriented__Raman_Data_Processed__37138.txt
30, 0.0
32, 0.0
34, 0.0
36, 0.0
38, 0.0
40, 0.0
42, 0.0
44, 0.0
46, 0.0
48, 0.0
50, 0.0
52, 0.0
54, 0.0
56, 0.0
58, 0.0
60, 0.0
62, 0.0
64, 0.0
66, 0.0
68, 0.0
70, 0.0
72, 0.0
74, 0.0
76, 0.0
78, 0.0
80, 0.0
82, 0.0
84, 0.0
86, 0.0
88, 0.0
90, 0.0
92, 0.0
94, 0.0
96, 0.0
98, 0.0
100, 0.0
102, 0.0
104, 0.0
106, 0.0
108, 0.0
110, 0.0
112, 0.0
114, 0.0
116, 0.0
118, 0.0
120, 0.0
122, 0.0
124, 0.0
126, 0.0
128, 0.0
130, 0.0
132, 0.0
134, 0.0
136, 0.0
138, 0.0
140, 0.0
142, 0.0
144, 0.0
146, 0.0
148, 0.0
150, 0.0
152, 0.0
154, 0.0
156, 0.0
158, 0.0
160, 0.0
162, 0.0
164, 0.0
166, 0.0
168, 0.0
170, 0.0
172, 0.0
174, 0.0
176, 0.0
178, 0.0
180, 0.0
182, 0.0
184, 0.0
186, 0.0
188, 0.0
190, 0.0
192, 0.0
194, 0.0
196, 0.0
198, 0.0
200, 0.0
202.0, 0.0107367
204.0, 0.00808633
206.0, 0.0194881
208.0, 0.0538627
210.0, 0.0858889
212.0, 0.123706
214.0, 0.179839
216.0, 0.246548
218.0, 0.306286
220.0, 0.336649
222.0, 0.320715
224.0, 0.288056
226.0, 0.281226
228.0, 0.32702
230.0, 0.410397
232.0, 0.542322
234.0, 0.691144
236.0, 0.838478
238.0, 0.955959
240.0, 0.991232
242.0, 0.911338
244.0, 0.710379
246.0, 0.515092
248.0, 0.338492
250.0, 0.21522
252.0, 0.122561
254.0, 0.0747387
256.0, 0.015352
258.0, 0.010466
260.0, 0.0315891
262.0, 0.0294683
264.0, 0.0267842
266.0, 0.00456898
268.0, 0.0220629
270.0, 0.0526593
272.0, 0.0783229
274.0, 0.0981124
276.0, 0.103185
278.0, 0.0963836
280.0, 0.0909535
282.0, 0.087684
284.0, 0.0789909
286.0, 0.0765734
288.0, 0.0816748
290.0, 0.0713638
292.0, 0.0695599
294.0, 0.0599521
296.0, 0.0619338
298.0, 0.0574036
300.0, 0.0610945
302.0, 0.0567734
304.0, 0.0604162
306.0, 0.05394
308.0, 0.0550146
310.0, 0.0583023
312.0, 0.0724119
314.0, 0.0827943
316.0, 0.0909389
318.0, 0.112146
320.0, 0.137734
322.0, 0.178744
324.0, 0.212254
326.0, 0.261796
328.0, 0.294369
330.0, 0.317278
332.0, 0.315012
334.0, 0.319631
336.0, 0.31119
338.0, 0.306131
340.0, 0.303045
342.0, 0.29364
344.0, 0.275425
346.0, 0.272018
348.0, 0.253427
350.0, 0.23895
352.0, 0.231612
354.0, 0.198851
356.0, 0.189026
358.0, 0.170677
360.0, 0.158725
362.0, 0.160077
364.0, 0.153849
366.0, 0.147718
368.0, 0.151633
370.0, 0.152458
372.0, 0.156971
374.0, 0.167109
376.0, 0.167913
378.0, 0.17714
380.0, 0.186779
382.0, 0.193289
384.0, 0.190907
386.0, 0.186613
388.0, 0.191472
390.0, 0.202669
392.0, 0.20198
394.0, 0.203316
396.0, 0.219331
398.0, 0.205796
400.0, 0.199408
402.0, 0.182289
404.0, 0.172511
406.0, 0.149812
408.0, 0.12872
410.0, 0.0957392
412.0, 0.0774308
414.0, 0.0562745
416.0, 0.0319182
418.0, 0.0149614
420.0, 0.00120624
422.0, 0.00995922
424.0, 0.020806
426.0, 0.0259426
428.0, 0.0167308
430.0, 0.0130389
432.0, 0.00607245
434.0, 0.00464606
436.0, 0.0124922
438.0, 0.0300739
440.0, 0.03653
442.0, 0.0487682
444.0, 0.0435967
446.0, 0.0586229
448.0, 0.0747863
450.0, 0.0890694
452.0, 0.113792
454.0, 0.130589
456.0, 0.181108
458.0, 0.229369
460.0, 0.276948
462.0, 0.31991
464.0, 0.362634
466.0, 0.378491
468.0, 0.366322
470.0, 0.335822
472.0, 0.281885
474.0, 0.2336
476.0, 0.204152
478.0, 0.174325
480.0, 0.156688
482.0, 0.14618
484.0, 0.139199
486.0, 0.139114
488.0, 0.140576
490.0, 0.141628
492.0, 0.131639
494.0, 0.128354
496.0, 0.11435
498.0, 0.111335
500.0, 0.101134
502.0, 0.0889228
504.0, 0.0812178
506.0, 0.072543
508.0, 0.0606283
510.0, 0.0668908
512.0, 0.0523699
514.0, 0.0612843
516.0, 0.0586044
518.0, 0.0669717
520.0, 0.0668887
522.0, 0.0650096
524.0, 0.065296
526.0, 0.0742651
528.0, 0.0793439
530.0, 0.0675476
532.0, 0.0737885
534.0, 0.0731569
536.0, 0.0735543
538.0, 0.0612851
540.0, 0.0521212
542.0, 0.0469935
544.0, 0.0423614
546.0, 0.0250418
548.0, 0.0248282
550.0, 0.0228695
552.0, 0.0168942
554.0, 0.0124925
556.0, 0.00563593
558.0, 0.00403966
560.0, 0.000339208
562.0, 0.00664136
564.0, 0.0111516
566.0, 0.00706791
568.0, 0.0115783
570.0, 0.00578786
572.0, 0.00555049
574.0, 0.00458003
576.0, 0.000659754
578.0, 0.00906784
580.0, 0.0148957
582.0, 0.0163559
584.0, 0.0200739
586.0, 0.0316068
588.0, 0.0355653
590.0, 0.0437931
592.0, 0.0465842
594.0, 0.0543605
596.0, 0.0614491
598.0, 0.0710106
600.0, 0.0786389
602.0, 0.0847609
604.0, 0.0917817
606.0, 0.1045
608.0, 0.119363
610.0, 0.124046
612.0, 0.138771
614.0, 0.153167
616.0, 0.157054
618.0, 0.176971
620.0, 0.189799
622.0, 0.196368
624.0, 0.201204
626.0, 0.201424
628.0, 0.20382
630.0, 0.215862
632.0, 0.218299
634.0, 0.223078
636.0, 0.223832
638.0, 0.219
640.0, 0.222819
642.0, 0.22111
644.0, 0.216103
646.0, 0.215206
648.0, 0.210479
650.0, 0.203155
652.0, 0.209379
654.0, 0.200944
656.0, 0.195209
658.0, 0.194404
660.0, 0.192098
662.0, 0.185041
664.0, 0.180605
666.0, 0.174616
668.0, 0.16481
670.0, 0.162756
672.0, 0.154842
674.0, 0.14857
676.0, 0.133933
678.0, 0.127986
680.0, 0.117979
682.0, 0.105647
684.0, 0.0952375
686.0, 0.0830394
688.0, 0.0716909
690.0, 0.0659701
692.0, 0.0528159
694.0, 0.0427762
696.0, 0.0338134
698.0, 0.0251421
700.0, 0.0145827
702.0, 0.00504376
704.0, 0.000243769
706.0, 0.00312348
708.0, 0.00646524
710.0, 0.011107
712.0, 0.0135046
714.0, 0.0147758
716.0, 0.0127354
718.0, 0.0096492
720.0, 0.00581635
722.0, 0.0031703
724.0, 0.00829145
726.0, 0.0109169
728.0, 0.0181432
730.0, 0.030911
732.0, 0.0469067
734.0, 0.0574383
736.0, 0.0702521
738.0, 0.0884139
740.0, 0.103023
742.0, 0.130044
744.0, 0.148351
746.0, 0.170043
748.0, 0.190901
750.0, 0.214861
752.0, 0.247226
754.0, 0.262849
756.0, 0.297541
758.0, 0.328303
760.0, 0.363313
762.0, 0.400135
764.0, 0.439542
766.0, 0.477887
768.0, 0.514002
770.0, 0.545618
772.0, 0.588053
774.0, 0.621361
776.0, 0.65197
778.0, 0.685642
780.0, 0.711159
782.0, 0.732185
784.0, 0.746244
786.0, 0.766512
788.0, 0.771366
790.0, 0.774757
792.0, 0.767507
794.0, 0.763447
796.0, 0.74088
798.0, 0.707298
800.0, 0.681872
802.0, 0.645079
804.0, 0.601769
806.0, 0.566654
808.0, 0.527741
810.0, 0.476793
812.0, 0.437636
814.0, 0.400519
816.0, 0.360522
818.0, 0.326725
820.0, 0.294583
822.0, 0.268945
824.0, 0.241371
826.0, 0.222567
828.0, 0.190859
830.0, 0.175508
832.0, 0.15692
834.0, 0.139595
836.0, 0.12583
838.0, 0.110414
840.0, 0.0990374
842.0, 0.0893535
844.0, 0.0795733
846.0, 0.0693125
848.0, 0.054246
850.0, 0.0475901
852.0, 0.0390417
854.0, 0.024367
856.0, 0.023816
858.0, 0.0174692
860.0, 0.0137939
862.0, 0.00814314
864.0, 0.00132168
866.0, 0.00164876
868.0, 0.00230455
870.0, 0.00064025
872.0, 0.00380201
874.0, 0.00520675
876.0, 0.00673263
878.0, 0.00395859
880.0, 0.00877913
882.0, 0.00668882
884.0, 0.00236563
886.0, 0.00475445
888.0, 0.00177493
890.0, 0.00215672
892.0, 0.0025768
894.0, 0.00151743
896.0, 0.00228958
898.0, 0.00467667
900.0, 0.00865909
902.0, 0.0122645
904.0, 0.0100073
906.0, 0.013464
908.0, 0.0160028
910.0, 0.0197762
912.0, 0.0184954
914.0, 0.0207308
916.0, 0.0223931
918.0, 0.0242096
920.0, 0.0255291
922.0, 0.0291057
924.0, 0.0277907
926.0, 0.0273515
928.0, 0.0298385
930.0, 0.0301388
932.0, 0.0296083
934.0, 0.0299017
936.0, 0.0268352
938.0, 0.0267524
940.0, 0.0265134
942.0, 0.0249487
944.0, 0.0249505
946.0, 0.0196207
948.0, 0.0159357
950.0, 0.0140678
952.0, 0.0115001
954.0, 0.0106409
956.0, 0.00374412
958.0, 0.00802066
960.0, 0.00889791
962.0, 0.00476869
964.0, 0.00560668
966.0, 0.00818299
968.0, 0.00616452
970.0, 0.00862494
972.0, 0.00919043
974.0, 0.00701699
976.0, 0.00690522
978.0, 0.00725011
980.0, 0.00903452
982.0, 0.00694573
984.0, 0.00471194
986.0, 0.00857978
988.0, 0.00615052
990.0, 0.00722161
992.0, 0.00638146
994.0, 0.00516879
996.0, 0.00896647
998.0, 0.00813151
1000.0, 0.00916075
1002.0, 0.0072089
1004.0, 0.0111844
1006.0, 0.0107309
1008.0, 0.0123767
1010.0, 0.0119116
1012.0, 0.0108435
1014.0, 0.016842
1016.0, 0.0228738
1018.0, 0.0319718
1020.0, 0.0321398
1022.0, 0.0341494
1024.0, 0.0177601
1026.0, 0.0178238
1028.0, 0.0201484
1030.0, 0.0165463
1032.0, 0.0201163
1034.0, 0.0167409
1036.0, 0.0180183
1038.0, 0.018089
1040.0, 0.0172153
1042.0, 0.017777
1044.0, 0.0189593
1046.0, 0.0183155
1048.0, 0.0169124
1050.0, 0.0205497
1052.0, 0.0177391
1054.0, 0.017387
1056.0, 0.0151656
1058.0, 0.0142938
1060.0, 0.0148749
1062.0, 0.0160314
1064.0, 0.013842
1066.0, 0.0131048
1068.0, 0.0112861
1070.0, 0.011893
1072.0, 0.0118838
1074.0, 0.01076
1076.0, 0.0113933
1078.0, 0.00798901
1080.0, 0.00761761
1082.0, 0.00881623
1084.0, 0.00974721
1086.0, 0.00903894
1088.0, 0.00472944
1090.0, 0.00616991
1092.0, 0.00585701
1094.0, 0.00270396
1096.0, 0.000588168
1098.0, 0.00296761
1100.0, 0.00308442
1102.0, 0.00140164
1104.0, 0.000659373
1106.0, 0.00017834
1108.0, 0.000590779
1110.0, 0.000269251
1112.0, 0.000349418
1114.0, 0.00156828
1116.0, 0.000875979
1118.0, 0.00210258
1120.0, 0.000709563
1122.0, 0.000163516
1124.0, 0.000326248
1126.0, 0.000975365
1128.0, 4.43873e-05
1130.0, 0.000419913
1132.0, 0.000930946
1134.0, 0.00133414
1136.0, 0.00185179
1138.0, 0.00147789
1140.0, 0.00064314
1142.0, 0.000904901
1144.0, 0.0015277
1146.0, 0.0023154
1148.0, 0.00150879
1150.0, 0.00216351
1152.0, 0.00346495
1154.0, 0.00142962
1156.0, 0.00299394
1158.0, 0.0028069
1160.0, 0.00287378
1162.0, 0.00293071
1164.0, 0.00365281
1166.0, 0.00564399
1168.0, 0.00119228
1170.0, 0.00257259
1172.0, 0.00328296
1174.0, 0.00670268
1176.0, 0.00584641
1178.0, 0.00504888
1180.0, 0.00321246
1182.0, 0.00612441
1184.0, 0.00750704
1186.0, 0.0065816
1188.0, 0.00558437
1190.0, 0.00471526
1192.0, 0.00527937
1194.0, 0.00493905
1196.0, 0.00473142
1198.0, 0.00818269
1200.0, 0.00496626
1202.0, 0.00472276
1204.0, 0.00306324
1206.0, 0.00589532
1208.0, 0.00430315
1210.0, 0.0053405
1212.0, 0.00564579
1214.0, 0.00306975
1216.0, 0.00259431
1218.0, 0.00248697
1220.0, 0.00247109
1222.0, 0.00290679
1224.0, 0.00383942
1226.0, 0.00261598
1228.0, 0.00215342
1230.0, 0.00225876
1232.0, 0.00230883
1234.0, 0.000936466
1236.0, 0.000772115
1238.0, 0.000292612
1240.0, 0.00138262
1242.0, 0.00145357
1244.0, 0.00281791
1246.0, 0.00127464
1248.0, 0.00255419
1250.0, 0.00352914
1252.0, 0.00352202
1254.0, 0.00376194
1256.0, 0.00100296
1258.0, 0.00282929
1260.0, 0.00270168
1262.0, 0.00609549
1264.0, 0.00466579
1266.0, 0.00446051
1268.0, 0.00199222
1270.0, 0.00512099
1272.0, 0.00212979
1274.0, 0.000716395
1276.0, 0.000782339
1278.0, 0.00219696
1280.0, 0.00227407
1282.0, 0.00482575
1284.0, 0.00371385
1286.0, 0.00326344
1288.0, 0.0019093
1290.0, 0.00282548
1292.0, 0.00342506
1294.0, 0.00236382
1296.0, 0.000487137
1298.0, 0.00296048
1300.0, 7.61216e-05
1302, 0.0
1304, 0.0
1306, 0.0
1308, 0.0
1310, 0.0
1312, 0.0
1314, 0.0
1316, 0.0
1318, 0.0
1320, 0.0
1322, 0.0
1324, 0.0
1326, 0.0
1328, 0.0
1330, 0.0
1332, 0.0
1334, 0.0
1336, 0.0
1338, 0.0
1340, 0.0
1342, 0.0
1344, 0.0
1346, 0.0
1348, 0.0
1350, 0.0
1352, 0.0
1354, 0.0
1356, 0.0
1358, 0.0
1360, 0.0
1362, 0.0
1364, 0.0
1366, 0.0
1368, 0.0
1370, 0.0
1372, 0.0
1374, 0.0
1376, 0.0
1378, 0.0
1380, 0.0
1382, 0.0
1384, 0.0
1386, 0.0
1388, 0.0
1390, 0.0
1392, 0.0
1394, 0.0
1396, 0.0
1398, 0.0
1400, 0.0
1402, 0.0
1404, 0.0
1406, 0.0
1408, 0.0
1410, 0.0
1412, 0.0
1414, 0.0
1416, 0.0
1418, 0.0
1420, 0.0
1422, 0.0
1424, 0.0
1426, 0.0
1428, 0.0
1430, 0.0
1432, 0.0
1434, 0.0
1436, 0.0
1438, 0.0
1440, 0.0
1442, 0.0
1444, 0.0
1446, 0.0
1448, 0.0
1450, 0.0
1452, 0.0
1454, 0.0
1456, 0.0
1458, 0.0
1460, 0.0
1462, 0.0
1464, 0.0
1466, 0.0
1468, 0.0
1470, 0.0
1472, 0.0
1474, 0.0
1476, 0.0
1478, 0.0
1480, 0.0
1482, 0.0
1484, 0.0
1486, 0.0
1488, 0.0
1490, 0.0
1492, 0.0
1494, 0.0
1496, 0.0
1498, 0.0
1500, 0.0
1502, 0.0
1504, 0.0
1506, 0.0
1508, 0.0
1510, 0.0
1512, 0.0
1514, 0.0
1516, 0.0
1518, 0.0
1520, 0.0
1522, 0.0
1524, 0.0
1526, 0.0
1528, 0.0
1530, 0.0
1532, 0.0
1534, 0.0
1536, 0.0
1538, 0.0
1540, 0.0
1542, 0.0
1544, 0.0
1546, 0.0
1548, 0.0
1550, 0.0
1552, 0.0
1554, 0.0
1556, 0.0
1558, 0.0
1560, 0.0
1562, 0.0
1564, 0.0
1566, 0.0
1568, 0.0
1570, 0.0
1572, 0.0
1574, 0.0
1576, 0.0
1578, 0.0
1580, 0.0
1582, 0.0
1584, 0.0
1586, 0.0
1588, 0.0
1590, 0.0
1592, 0.0
1594, 0.0
1596, 0.0
1598, 0.0
1599, 0.0