File: raw data/Dataset_2/Perovskite/Perovskite__R130037__Raman__780__0__unoriented__Raman_Data_Processed__37548.txt
30, 0.0
32, 0.0
34, 0.0
36, 0.0
38, 0.0
40, 0.0
42, 0.0
44, 0.0
46, 0.0
48, 0.0
50, 0.0
52, 0.0
54, 0.0
56, 0.0
58, 0.0
60, 0.0
62, 0.0
64, 0.0
66, 0.0
68, 0.0
70, 0.0
72, 0.0
74, 0.0
76, 0.0
78, 0.0
80, 0.0
82, 0.0
84, 0.0
86, 0.0
88, 0.0
90, 0.0
92.0, 0.0802628
94.0, 0.121636
96.0, 0.100366
98.0, 0.084833
100.0, 0.00525365
102.0, 0.0172971
104.0, 0.0338567
106.0, 0.0455835
108.0, 0.0027918
110.0, 0.0061088
112.0, 0.0245201
114.0, 0.0642804
116.0, 0.062689
118.0, 0.0699431
120.0, 0.0782211
122.0, 0.0813844
124.0, 0.0899739
126.0, 0.0603951
128.0, 0.0678113
130.0, 0.0503777
132.0, 0.0433964
134.0, 0.0276688
136.0, 0.0406628
138.0, 0.072342
140.0, 0.0342826
142.0, 0.0501293
144.0, 0.0533799
146.0, 0.0354116
148.0, 0.0393927
150.0, 0.034658
152.0, 0.0592795
154.0, 0.0438309
156.0, 0.0384387
158.0, 0.026226
160.0, 0.0233044
162.0, 0.0414564
164.0, 0.0354534
166.0, 0.0212326
168.0, 0.0179791
170.0, 0.0309037
172.0, 0.0146847
174.0, 0.0106215
176.0, 0.0025522
178.0, 0.00218818
180.0, 0.0054644
182.0, 0.0118645
184.0, 0.00156156
186.0, 0.00591329
188.0, 0.00158507
190.0, 0.00900493
192.0, 0.0137356
194.0, 0.00751452
196.0, 0.0173073
198.0, 0.0354234
200.0, 0.025289
202.0, 0.0528691
204.0, 0.0545702
206.0, 0.0641367
208.0, 0.0668348
210.0, 0.0850465
212.0, 0.0815646
214.0, 0.101836
216.0, 0.110121
218.0, 0.114559
220.0, 0.147183
222.0, 0.161043
224.0, 0.179719
226.0, 0.21375
228.0, 0.23649
230.0, 0.265194
232.0, 0.28752
234.0, 0.291882
236.0, 0.303744
238.0, 0.307334
240.0, 0.265085
242.0, 0.238951
244.0, 0.185211
246.0, 0.146697
248.0, 0.0817506
250.0, 0.0811359
252.0, 0.060523
254.0, 0.0369557
256.0, 0.0186858
258.0, 0.0215923
260.0, 0.0223675
262.0, 0.00599915
264.0, 0.00953964
266.0, 0.00933544
268.0, 0.0278637
270.0, 0.0211042
272.0, 0.0206923
274.0, 0.0231164
276.0, 0.0331488
278.0, 0.0192232
280.0, 0.0226455
282.0, 0.0218954
284.0, 0.0279188
286.0, 0.00945652
288.0, 0.0231284
290.0, 0.0408819
292.0, 0.0373516
294.0, 0.0261861
296.0, 0.0296346
298.0, 0.0435235
300.0, 0.0272234
302.0, 0.0423231
304.0, 0.0688691
306.0, 0.0668302
308.0, 0.0804009
310.0, 0.0718662
312.0, 0.0746809
314.0, 0.112706
316.0, 0.106647
318.0, 0.115375
320.0, 0.127335
322.0, 0.133722
324.0, 0.144798
326.0, 0.126091
328.0, 0.152697
330.0, 0.154229
332.0, 0.16792
334.0, 0.14673
336.0, 0.143717
338.0, 0.130633
340.0, 0.139669
342.0, 0.115476
344.0, 0.132512
346.0, 0.092489
348.0, 0.104591
350.0, 0.0686333
352.0, 0.0766494
354.0, 0.0862612
356.0, 0.0848586
358.0, 0.0708662
360.0, 0.0776715
362.0, 0.0607329
364.0, 0.0781344
366.0, 0.05416
368.0, 0.0579625
370.0, 0.0612578
372.0, 0.0492668
374.0, 0.0502695
376.0, 0.047191
378.0, 0.0363429
380.0, 0.0376184
382.0, 0.0355008
384.0, 0.0334186
386.0, 0.0253112
388.0, 0.0283189
390.0, 0.0182822
392.0, 0.0111685
394.0, 0.0107972
396.0, 0.00682424
398.0, 0.0118121
400.0, 0.00471013
402.0, 0.00796578
404.0, 0.00315301
406.0, 0.0101223
408.0, 0.0138458
410.0, 0.00844736
412.0, 0.00123921
414.0, 0.00726727
416.0, 0.00129046
418.0, 0.00876281
420.0, 0.00395581
422.0, 0.00257653
424.0, 0.0108985
426.0, 0.0110407
428.0, 0.0113119
430.0, 0.0128855
432.0, 0.00622376
434.0, 0.0201007
436.0, 0.0252304
438.0, 0.0487393
440.0, 0.0532646
442.0, 0.0855617
444.0, 0.117582
446.0, 0.133893
448.0, 0.173607
450.0, 0.185664
452.0, 0.229374
454.0, 0.2825
456.0, 0.298425
458.0, 0.3037
460.0, 0.292848
462.0, 0.282092
464.0, 0.230036
466.0, 0.191135
468.0, 0.160374
470.0, 0.132124
472.0, 0.108176
474.0, 0.1034
476.0, 0.0933844
478.0, 0.0729481
480.0, 0.0835269
482.0, 0.0770765
484.0, 0.0684596
486.0, 0.0656599
488.0, 0.0665593
490.0, 0.0547271
492.0, 0.0500206
494.0, 0.0516993
496.0, 0.0489523
498.0, 0.0731839
500.0, 0.0443459
502.0, 0.0603825
504.0, 0.0561183
506.0, 0.064849
508.0, 0.0637175
510.0, 0.072386
512.0, 0.0642684
514.0, 0.0760601
516.0, 0.0700215
518.0, 0.0776641
520.0, 0.0696616
522.0, 0.0701247
524.0, 0.0776071
526.0, 0.0730779
528.0, 0.074841
530.0, 0.0860874
532.0, 0.0745163
534.0, 0.0776624
536.0, 0.0781893
538.0, 0.0729643
540.0, 0.0635003
542.0, 0.0640135
544.0, 0.0637092
546.0, 0.0626464
548.0, 0.0624204
550.0, 0.0562889
552.0, 0.0508791
554.0, 0.0482614
556.0, 0.0403578
558.0, 0.0564924
560.0, 0.0419866
562.0, 0.0478904
564.0, 0.0325355
566.0, 0.025971
568.0, 0.00863414
570.0, 0.0344937
572.0, 0.0181704
574.0, 0.0172109
576.0, 0.0131089
578.0, 0.0247483
580.0, 0.0145358
582.0, 0.014599
584.0, 0.0203452
586.0, 0.0134958
588.0, 0.0106404
590.0, 0.00557506
592.0, 0.00395676
594.0, 0.0119018
596.0, 0.00169339
598.0, 0.00573556
600.0, 0.0035991
602.0, 0.00259729
604.0, 0.00690746
606.0, 0.00366833
608.0, 0.00393468
610.0, 0.0231744
612.0, 0.000283707
614.0, 0.00715879
616.0, 0.00790912
618.0, 0.00763421
620.0, 0.0168586
622.0, 0.0216347
624.0, 0.0265859
626.0, 0.0307012
628.0, 0.030152
630.0, 0.0270678
632.0, 0.0427176
634.0, 0.0233537
636.0, 0.0517011
638.0, 0.051805
640.0, 0.0496587
642.0, 0.0595822
644.0, 0.0608794
646.0, 0.0469286
648.0, 0.0467668
650.0, 0.0384809
652.0, 0.0411214
654.0, 0.02648
656.0, 0.0292264
658.0, 0.0378557
660.0, 0.0249159
662.0, 0.0253721
664.0, 0.014861
666.0, 0.0124064
668.0, 0.0103902
670.0, 0.00609039
672.0, 0.0122392
674.0, 0.00120949
676.0, 0.00311364
678.0, 0.00994022
680.0, 0.00655444
682.0, 0.003641
684.0, 0.0166211
686.0, 0.0132831
688.0, 0.0241244
690.0, 0.0156638
692.0, 0.00744892
694.0, 0.017506
696.0, 0.0202997
698.0, 0.0156885
700.0, 0.00127675
702.0, 0.00245428
704.0, 0.0081032
706.0, 0.0145528
708.0, 0.0258444
710.0, 0.0316296
712.0, 0.0410673
714.0, 0.0665446
716.0, 0.0698924
718.0, 0.0989377
720.0, 0.118966
722.0, 0.148427
724.0, 0.167988
726.0, 0.200541
728.0, 0.223298
730.0, 0.252718
732.0, 0.310738
734.0, 0.33057
736.0, 0.389139
738.0, 0.4447
740.0, 0.487871
742.0, 0.536767
744.0, 0.577986
746.0, 0.638123
748.0, 0.670328
750.0, 0.721356
752.0, 0.772224
754.0, 0.798277
756.0, 0.827275
758.0, 0.873842
760.0, 0.890411
762.0, 0.929623
764.0, 0.944836
766.0, 0.951367
768.0, 0.975378
770.0, 0.988109
772.0, 0.978918
774.0, 0.962965
776.0, 0.966945
778.0, 0.970118
780.0, 0.941591
782.0, 0.925859
784.0, 0.908364
786.0, 0.880093
788.0, 0.858291
790.0, 0.851989
792.0, 0.813434
794.0, 0.790933
796.0, 0.750568
798.0, 0.720007
800.0, 0.672509
802.0, 0.646404
804.0, 0.614143
806.0, 0.594248
808.0, 0.563572
810.0, 0.548332
812.0, 0.515058
814.0, 0.485798
816.0, 0.477641
818.0, 0.463872
820.0, 0.438724
822.0, 0.419698
824.0, 0.404715
826.0, 0.371735
828.0, 0.355456
830.0, 0.318358
832.0, 0.311401
834.0, 0.273618
836.0, 0.256807
838.0, 0.232449
840.0, 0.188672
842.0, 0.182507
844.0, 0.164839
846.0, 0.131621
848.0, 0.123225
850.0, 0.089626
852.0, 0.0886906
854.0, 0.0677317
856.0, 0.0565935
858.0, 0.0469842
860.0, 0.0185665
862.0, 0.0143975
864.0, 0.0135823
866.0, 0.00557408
868.0, 0.00914778
870.0, 0.00189279
872.0, 0.0113624
874.0, 0.0083848
876.0, 0.00905322
878.0, 0.029544
880.0, 0.0199454
882.0, 0.0055058
884.0, 0.0178482
886.0, 0.0103219
888.0, 0.00946023
890.0, 0.00620592
892.0, 0.00422705
894.0, 0.00185044
896.0, 0.00378533
898.0, 0.00218297
900.0, 0.0199082
902.0, 0.0112544
904.0, 0.000447253
906.0, 0.0160758
908.0, 0.0250599
910.0, 0.0207759
912.0, 0.0358157
914.0, 0.0337675
916.0, 0.0430219
918.0, 0.0529795
920.0, 0.0549425
922.0, 0.0492385
924.0, 0.0517924
926.0, 0.0464504
928.0, 0.0595658
930.0, 0.0660916
932.0, 0.0660999
934.0, 0.0608662
936.0, 0.0591014
938.0, 0.0619156
940.0, 0.0501913
942.0, 0.0661027
944.0, 0.0792564
946.0, 0.0567852
948.0, 0.0521228
950.0, 0.0563299
952.0, 0.054396
954.0, 0.0525682
956.0, 0.0438785
958.0, 0.0399908
960.0, 0.0515805
962.0, 0.0349993
964.0, 0.0440482
966.0, 0.0456689
968.0, 0.0387721
970.0, 0.0325846
972.0, 0.0356445
974.0, 0.0353721
976.0, 0.0261458
978.0, 0.0334315
980.0, 0.0380896
982.0, 0.0360253
984.0, 0.0315026
986.0, 0.0314965
988.0, 0.0189967
990.0, 0.0242886
992.0, 0.024707
994.0, 0.0273002
996.0, 0.0237745
998.0, 0.0203665
1000.0, 0.0185407
1002.0, 0.016355
1004.0, 0.0187255
1006.0, 0.027356
1008.0, 0.0275712
1010.0, 0.0290778
1012.0, 0.0175635
1014.0, 0.0136957
1016.0, 0.0204259
1018.0, 0.0195888
1020.0, 0.0191994
1022.0, 0.0207525
1024.0, 0.0240505
1026.0, 0.0100865
1028.0, 0.0196856
1030.0, 0.0156582
1032.0, 0.00192081
1034.0, 0.0162388
1036.0, 0.0115518
1038.0, 0.0113027
1040.0, 0.0191047
1042.0, 0.0178867
1044.0, 0.0207867
1046.0, 0.00586191
1048.0, 0.00748971
1050.0, 0.0180121
1052.0, 0.0100121
1054.0, 0.0141968
1056.0, 0.0133681
1058.0, 0.022934
1060.0, 0.0218598
1062.0, 0.00665272
1064.0, 0.0128633
1066.0, 0.00324339
1068.0, 0.00186282
1070.0, 0.00703483
1072.0, 0.0123176
1074.0, 0.0103998
1076.0, 0.00327596
1078.0, 0.00703456
1080.0, 0.00839952
1082.0, 0.00483196
1084.0, 0.0123706
1086.0, 0.00933068
1088.0, 0.00478433
1090.0, 0.00594893
1092.0, 0.0141827
1094.0, 0.00860454
1096.0, 0.00140572
1098.0, 0.00518663
1100.0, 0.00252995
1102.0, 0.0126182
1104.0, 0.00492383
1106.0, 0.00841214
1108.0, 0.00883432
1110.0, 0.00381326
1112.0, 0.00103955
1114.0, 0.0144822
1116.0, 0.00372732
1118.0, 0.00779132
1120.0, 0.00128522
1122.0, 0.000947477
1124.0, 0.00216793
1126.0, 0.0150626
1128.0, 0.0089673
1130.0, 0.01502
1132.0, 0.0121228
1134.0, 0.0035053
1136.0, 0.0102469
1138.0, 0.00751216
1140.0, 0.00525952
1142.0, 0.00184774
1144.0, 0.00769823
1146.0, 0.00779406
1148.0, 0.0079842
1150.0, 0.0022271
1152.0, 0.00897443
1154.0, 0.00343563
1156.0, 0.00389157
1158.0, 0.0103253
1160.0, 0.00470332
1162.0, 0.000106665
1164.0, 0.0120561
1166.0, 0.0015917
1168.0, 0.0108457
1170.0, 0.0211509
1172.0, 0.0167694
1174.0, 0.0211458
1176.0, 0.011848
1178.0, 0.00809932
1180.0, 0.00573056
1182.0, 0.0140639
1184.0, 0.00526654
1186.0, 0.012487
1188.0, 0.010418
1190.0, 0.00452801
1192.0, 0.0182899
1194.0, 0.0139375
1196.0, 0.00705935
1198.0, 0.0109699
1200.0, 0.0112336
1202.0, 0.0114672
1204.0, 0.0183796
1206.0, 0.0159853
1208.0, 0.00791376
1210.0, 0.00991296
1212.0, 0.00769614
1214.0, 0.0185826
1216.0, 0.00613603
1218.0, 0.00714797
1220.0, 0.0122939
1222.0, 0.00135853
1224.0, 0.00710228
1226.0, 0.0167653
1228.0, 0.00987924
1230.0, 0.0114225
1232.0, 0.0120327
1234.0, 0.00256245
1236.0, 0.0083907
1238.0, 0.00304549
1240.0, 0.0036426
1242.0, 0.00395497
1244.0, 0.00244804
1246.0, 0.0138553
1248.0, 0.0167574
1250.0, 0.0110265
1252.0, 0.00824394
1254.0, 0.00522236
1256.0, 0.00839485
1258.0, 0.0078363
1260.0, 0.010504
1262.0, 0.00999435
1264.0, 0.00941469
1266.0, 0.00699108
1268.0, 0.0150381
1270.0, 0.00189936
1272.0, 0.00134992
1274.0, 0.0104781
1276.0, 0.0094971
1278.0, 0.00230234
1280.0, 0.00452331
1282.0, 0.0110875
1284, 0.0
1286, 0.0
1288, 0.0
1290, 0.0
1292, 0.0
1294, 0.0
1296, 0.0
1298, 0.0
1300, 0.0
1302, 0.0
1304, 0.0
1306, 0.0
1308, 0.0
1310, 0.0
1312, 0.0
1314, 0.0
1316, 0.0
1318, 0.0
1320, 0.0
1322, 0.0
1324, 0.0
1326, 0.0
1328, 0.0
1330, 0.0
1332, 0.0
1334, 0.0
1336, 0.0
1338, 0.0
1340, 0.0
1342, 0.0
1344, 0.0
1346, 0.0
1348, 0.0
1350, 0.0
1352, 0.0
1354, 0.0
1356, 0.0
1358, 0.0
1360, 0.0
1362, 0.0
1364, 0.0
1366, 0.0
1368, 0.0
1370, 0.0
1372, 0.0
1374, 0.0
1376, 0.0
1378, 0.0
1380, 0.0
1382, 0.0
1384, 0.0
1386, 0.0
1388, 0.0
1390, 0.0
1392, 0.0
1394, 0.0
1396, 0.0
1398, 0.0
1400, 0.0
1402, 0.0
1404, 0.0
1406, 0.0
1408, 0.0
1410, 0.0
1412, 0.0
1414, 0.0
1416, 0.0
1418, 0.0
1420, 0.0
1422, 0.0
1424, 0.0
1426, 0.0
1428, 0.0
1430, 0.0
1432, 0.0
1434, 0.0
1436, 0.0
1438, 0.0
1440, 0.0
1442, 0.0
1444, 0.0
1446, 0.0
1448, 0.0
1450, 0.0
1452, 0.0
1454, 0.0
1456, 0.0
1458, 0.0
1460, 0.0
1462, 0.0
1464, 0.0
1466, 0.0
1468, 0.0
1470, 0.0
1472, 0.0
1474, 0.0
1476, 0.0
1478, 0.0
1480, 0.0
1482, 0.0
1484, 0.0
1486, 0.0
1488, 0.0
1490, 0.0
1492, 0.0
1494, 0.0
1496, 0.0
1498, 0.0
1500, 0.0
1502, 0.0
1504, 0.0
1506, 0.0
1508, 0.0
1510, 0.0
1512, 0.0
1514, 0.0
1516, 0.0
1518, 0.0
1520, 0.0
1522, 0.0
1524, 0.0
1526, 0.0
1528, 0.0
1530, 0.0
1532, 0.0
1534, 0.0
1536, 0.0
1538, 0.0
1540, 0.0
1542, 0.0
1544, 0.0
1546, 0.0
1548, 0.0
1550, 0.0
1552, 0.0
1554, 0.0
1556, 0.0
1558, 0.0
1560, 0.0
1562, 0.0
1564, 0.0
1566, 0.0
1568, 0.0
1570, 0.0
1572, 0.0
1574, 0.0
1576, 0.0
1578, 0.0
1580, 0.0
1582, 0.0
1584, 0.0
1586, 0.0
1588, 0.0
1590, 0.0
1592, 0.0
1594, 0.0
1596, 0.0
1598, 0.0
1599, 0.0