File: raw data/Dataset_2/Perovskite/Perovskite__R120121__Raman__780__0__unoriented__Raman_Data_Processed__37140.txt
30, 0.0
32, 0.0
34, 0.0
36, 0.0
38, 0.0
40, 0.0
42, 0.0
44, 0.0
46, 0.0
48, 0.0
50, 0.0
52, 0.0
54, 0.0
56, 0.0
58, 0.0
60, 0.0
62, 0.0
64, 0.0
66, 0.0
68, 0.0
70, 0.0
72, 0.0
74, 0.0
76, 0.0
78, 0.0
80, 0.0
82, 0.0
84, 0.0
86, 0.0
88, 0.0
90, 0.0
92, 0.0
94, 0.0
96, 0.0
98, 0.0
100, 0.0
102.0, 0.000610773
104.0, 0.0038028
106.0, 0.0131043
108.0, 0.0253211
110.0, 0.035283
112.0, 0.0477294
114.0, 0.0612128
116.0, 0.0693539
118.0, 0.0830133
120.0, 0.0891082
122.0, 0.096748
124.0, 0.0990534
126.0, 0.103647
128.0, 0.107419
130.0, 0.109756
132.0, 0.110314
134.0, 0.110917
136.0, 0.113706
138.0, 0.107969
140.0, 0.108897
142.0, 0.105814
144.0, 0.108111
146.0, 0.104338
148.0, 0.101694
150.0, 0.0966207
152.0, 0.0930998
154.0, 0.0960014
156.0, 0.0846892
158.0, 0.0819278
160.0, 0.0725507
162.0, 0.0785055
164.0, 0.0766039
166.0, 0.082389
168.0, 0.08846
170.0, 0.0940849
172.0, 0.100849
174.0, 0.095969
176.0, 0.0851431
178.0, 0.0678733
180.0, 0.0518968
182.0, 0.0451959
184.0, 0.0349965
186.0, 0.0267465
188.0, 0.0237578
190.0, 0.0204171
192.0, 0.0115319
194.0, 0.00725915
196.0, 0.00412713
198.0, 0.000406285
200.0, 0.00156999
202.0, 0.00271511
204.0, 0.00327252
206.0, 0.00205762
208.0, 0.00112658
210.0, 0.000392921
212.0, 0.00416008
214.0, 0.00395115
216.0, 0.00941765
218.0, 0.00308237
220.0, 0.000952107
222.0, 0.00837673
224.0, 0.0101144
226.0, 0.00632851
228.0, 0.00241947
230.0, 0.0172357
232.0, 0.0325702
234.0, 0.0601002
236.0, 0.0782036
238.0, 0.088067
240.0, 0.0853541
242.0, 0.0797376
244.0, 0.0728056
246.0, 0.0838339
248.0, 0.092807
250.0, 0.113222
252.0, 0.134564
254.0, 0.161658
256.0, 0.196046
258.0, 0.238038
260.0, 0.268494
262.0, 0.310637
264.0, 0.340977
266.0, 0.376413
268.0, 0.418504
270.0, 0.440889
272.0, 0.468656
274.0, 0.487526
276.0, 0.494701
278.0, 0.497712
280.0, 0.481164
282.0, 0.466394
284.0, 0.418928
286.0, 0.389556
288.0, 0.341034
290.0, 0.303215
292.0, 0.260266
294.0, 0.22146
296.0, 0.181418
298.0, 0.149912
300.0, 0.123442
302.0, 0.106922
304.0, 0.100719
306.0, 0.0860651
308.0, 0.0838622
310.0, 0.0890326
312.0, 0.0812966
314.0, 0.0868578
316.0, 0.0819263
318.0, 0.063399
320.0, 0.0533863
322.0, 0.0380493
324.0, 0.0143068
326.0, 0.000494867
328.0, 0.0136466
330.0, 0.0185226
332.0, 0.0308566
334.0, 0.0199717
336.0, 0.00854208
338.0, 0.00980761
340.0, 0.033284
342.0, 0.0690452
344.0, 0.106631
346.0, 0.159452
348.0, 0.2154
350.0, 0.274059
352.0, 0.340908
354.0, 0.414012
356.0, 0.499049
358.0, 0.557614
360.0, 0.615397
362.0, 0.667268
364.0, 0.70834
366.0, 0.724789
368.0, 0.746306
370.0, 0.746027
372.0, 0.725847
374.0, 0.703547
376.0, 0.674171
378.0, 0.635997
380.0, 0.60826
382.0, 0.582803
384.0, 0.557147
386.0, 0.53548
388.0, 0.514429
390.0, 0.48901
392.0, 0.482093
394.0, 0.479084
396.0, 0.491621
398.0, 0.506365
400.0, 0.545848
402.0, 0.594718
404.0, 0.631942
406.0, 0.682379
408.0, 0.73103
410.0, 0.787458
412.0, 0.837451
414.0, 0.893353
416.0, 0.923387
418.0, 0.960186
420.0, 0.991405
422.0, 0.999633
424.0, 0.978138
426.0, 0.951546
428.0, 0.901131
430.0, 0.842583
432.0, 0.769111
434.0, 0.683581
436.0, 0.594197
438.0, 0.50031
440.0, 0.409655
442.0, 0.330072
444.0, 0.238741
446.0, 0.170906
448.0, 0.107793
450.0, 0.0525498
452.0, 0.0173042
454.0, 0.00988326
456.0, 0.0290039
458.0, 0.0335488
460.0, 0.0261022
462.0, 0.0132686
464.0, 0.00223497
466.0, 0.0263923
468.0, 0.0599304
470.0, 0.0935076
472.0, 0.122596
474.0, 0.151122
476.0, 0.176656
478.0, 0.19178
480.0, 0.227322
482.0, 0.241126
484.0, 0.257193
486.0, 0.266279
488.0, 0.281963
490.0, 0.288696
492.0, 0.305076
494.0, 0.314826
496.0, 0.326245
498.0, 0.350417
500.0, 0.351299
502.0, 0.369161
504.0, 0.386617
506.0, 0.384296
508.0, 0.390256
510.0, 0.386364
512.0, 0.376532
514.0, 0.361645
516.0, 0.3211
518.0, 0.278566
520.0, 0.240067
522.0, 0.21255
524.0, 0.170341
526.0, 0.139184
528.0, 0.0945372
530.0, 0.0635898
532.0, 0.0406282
534.0, 0.0146689
536.0, 0.00451914
538.0, 0.00589195
540.0, 0.0050559
542.0, 0.00279793
544.0, 0.0160554
546.0, 0.0396453
548.0, 0.0717923
550.0, 0.106291
552.0, 0.149649
554.0, 0.18841
556.0, 0.229075
558.0, 0.274262
560.0, 0.306839
562.0, 0.332691
564.0, 0.358333
566.0, 0.375377
568.0, 0.381972
570.0, 0.372626
572.0, 0.356586
574.0, 0.341696
576.0, 0.332627
578.0, 0.310703
580.0, 0.296051
582.0, 0.270644
584.0, 0.253626
586.0, 0.23357
588.0, 0.222369
590.0, 0.197817
592.0, 0.178002
594.0, 0.159069
596.0, 0.143137
598.0, 0.125119
600.0, 0.1092
602.0, 0.103325
604.0, 0.093211
606.0, 0.0820329
608.0, 0.0718058
610.0, 0.062209
612.0, 0.0533996
614.0, 0.042595
616.0, 0.0380514
618.0, 0.0280907
620.0, 0.0185391
622.0, 0.0124081
624.0, 0.0134316
626.0, 0.00823983
628.0, 0.00287197
630.0, 0.0011057
632.0, 0.00543791
634.0, 0.00496194
636.0, 0.00945667
638.0, 0.00612093
640.0, 0.00845597
642.0, 0.00891194
644.0, 0.00217437
646.0, 0.00205577
648.0, 0.0043015
650.0, 0.00367244
652.0, 0.00508268
654.0, 0.00175986
656.0, 0.0108293
658.0, 0.015189
660.0, 0.0235025
662.0, 0.0241434
664.0, 0.0330613
666.0, 0.0416312
668.0, 0.0522425
670.0, 0.0557496
672.0, 0.0652661
674.0, 0.0718039
676.0, 0.0830908
678.0, 0.0912352
680.0, 0.099936
682.0, 0.106846
684.0, 0.117909
686.0, 0.127231
688.0, 0.136058
690.0, 0.14358
692.0, 0.15277
694.0, 0.158659
696.0, 0.162961
698.0, 0.16907
700.0, 0.175886
702.0, 0.181348
704.0, 0.179532
706.0, 0.188912
708.0, 0.193559
710.0, 0.194528
712.0, 0.194919
714.0, 0.195904
716.0, 0.190346
718.0, 0.196843
720.0, 0.188693
722.0, 0.186494
724.0, 0.184892
726.0, 0.179938
728.0, 0.174344
730.0, 0.173916
732.0, 0.166222
734.0, 0.161542
736.0, 0.157896
738.0, 0.150313
740.0, 0.141132
742.0, 0.137327
744.0, 0.124331
746.0, 0.111727
748.0, 0.107595
750.0, 0.101439
752.0, 0.0971026
754.0, 0.0872457
756.0, 0.085792
758.0, 0.0796649
760.0, 0.0711002
762.0, 0.0677007
764.0, 0.0619875
766.0, 0.0576217
768.0, 0.0499672
770.0, 0.0471459
772.0, 0.0407502
774.0, 0.0351127
776.0, 0.032712
778.0, 0.0289289
780.0, 0.0250789
782.0, 0.0220274
784.0, 0.019188
786.0, 0.016024
788.0, 0.0156759
790.0, 0.0138508
792.0, 0.00466524
794.0, 0.00772001
796.0, 0.00431248
798.0, 6.34309e-05
800.0, 0.002723
802.0, 0.00181701
804.0, 0.00587916
806.0, 0.00264151
808.0, 0.00492758
810.0, 0.00627158
812.0, 0.00846328
814.0, 0.00579561
816.0, 0.000679318
818.0, 0.00127907
820.0, 0.00464379
822.0, 0.00812542
824.0, 0.013875
826.0, 0.0166436
828.0, 0.0237553
830.0, 0.0288005
832.0, 0.0378547
834.0, 0.0400453
836.0, 0.0537392
838.0, 0.0606218
840.0, 0.0722298
842.0, 0.083246
844.0, 0.0936951
846.0, 0.114738
848.0, 0.125397
850.0, 0.140922
852.0, 0.158588
854.0, 0.174475
856.0, 0.190874
858.0, 0.207536
860.0, 0.220089
862.0, 0.2389
864.0, 0.247875
866.0, 0.259774
868.0, 0.266497
870.0, 0.273003
872.0, 0.277486
874.0, 0.281948
876.0, 0.279268
878.0, 0.279022
880.0, 0.275892
882.0, 0.277426
884.0, 0.271972
886.0, 0.262344
888.0, 0.250263
890.0, 0.245968
892.0, 0.238355
894.0, 0.224498
896.0, 0.21224
898.0, 0.197026
900.0, 0.188733
902.0, 0.177053
904.0, 0.163468
906.0, 0.153009
908.0, 0.137918
910.0, 0.129022
912.0, 0.118998
914.0, 0.108043
916.0, 0.0961797
918.0, 0.0948607
920.0, 0.0819595
922.0, 0.0700529
924.0, 0.0653888
926.0, 0.0540904
928.0, 0.0482427
930.0, 0.0379339
932.0, 0.0294376
934.0, 0.0233422
936.0, 0.0155139
938.0, 0.0100231
940.0, 0.00545203
942.0, 0.00204426
944.0, 0.000527498
946.0, 0.00189495
948.0, 0.00474676
950.0, 0.00358336
952.0, 0.00429905
954.0, 0.00194703
956.0, 0.00015292
958.0, 0.00126753
960.0, 0.00419052
962.0, 0.00636518
964.0, 0.00913668
966.0, 0.0137951
968.0, 0.0181631
970.0, 0.0210054
972.0, 0.0290032
974.0, 0.0327302
976.0, 0.0387737
978.0, 0.0454055
980.0, 0.0495239
982.0, 0.0606544
984.0, 0.0659263
986.0, 0.0747676
988.0, 0.0800305
990.0, 0.0886761
992.0, 0.100833
994.0, 0.10666
996.0, 0.116875
998.0, 0.12223
1000.0, 0.126136
1002.0, 0.129969
1004.0, 0.130965
1006.0, 0.13153
1008.0, 0.12997
1010.0, 0.127383
1012.0, 0.125055
1014.0, 0.11857
1016.0, 0.115263
1018.0, 0.106525
1020.0, 0.101813
1022.0, 0.0932231
1024.0, 0.0878556
1026.0, 0.0787235
1028.0, 0.0693692
1030.0, 0.0632169
1032.0, 0.0553795
1034.0, 0.0475938
1036.0, 0.04235
1038.0, 0.0374032
1040.0, 0.030848
1042.0, 0.0250574
1044.0, 0.0180917
1046.0, 0.0154823
1048.0, 0.0121581
1050.0, 0.00894122
1052.0, 0.00444304
1054.0, 0.00340411
1056.0, 0.00291264
1058.0, 0.000239209
1060.0, 0.00106448
1062.0, 0.000813376
1064.0, 0.00288718
1066.0, 0.00241849
1068.0, 0.000953819
1070.0, 0.0021391
1072.0, 0.000477812
1074.0, 0.00065633
1076.0, 0.000226347
1078.0, 0.000265771
1080.0, 0.0015812
1082.0, 0.00446168
1084.0, 0.00507323
1086.0, 0.00752339
1088.0, 0.00956831
1090.0, 0.008861
1092.0, 0.00992982
1094.0, 0.0125723
1096.0, 0.0146655
1098.0, 0.0122062
1100.0, 0.0145259
1102.0, 0.0156185
1104.0, 0.0139797
1106.0, 0.0164356
1108.0, 0.014238
1110.0, 0.0166166
1112.0, 0.0185606
1114.0, 0.0150557
1116.0, 0.0141299
1118.0, 0.0157574
1120.0, 0.0163693
1122.0, 0.0155511
1124.0, 0.0176192
1126.0, 0.0149375
1128.0, 0.0168315
1130.0, 0.0140491
1132.0, 0.0144926
1134.0, 0.0154713
1136.0, 0.0161486
1138.0, 0.0165912
1140.0, 0.0196734
1142.0, 0.0189588
1144.0, 0.0207954
1146.0, 0.0225872
1148.0, 0.0231748
1150.0, 0.0236786
1152.0, 0.0273952
1154.0, 0.0312742
1156.0, 0.0305363
1158.0, 0.0310689
1160.0, 0.0320114
1162.0, 0.037982
1164.0, 0.0392627
1166.0, 0.0382869
1168.0, 0.0431529
1170.0, 0.0464726
1172.0, 0.0531044
1174.0, 0.0589651
1176.0, 0.0607531
1178.0, 0.0626837
1180.0, 0.0666486
1182.0, 0.067562
1184.0, 0.0676129
1186.0, 0.0690074
1188.0, 0.067633
1190.0, 0.0693814
1192.0, 0.0704067
1194.0, 0.0711692
1196.0, 0.07194
1198.0, 0.0742842
1200.0, 0.0719814
1202.0, 0.0684082
1204.0, 0.0653328
1206.0, 0.0625126
1208.0, 0.0581842
1210.0, 0.0558372
1212.0, 0.0513984
1214.0, 0.0442016
1216.0, 0.0420614
1218.0, 0.0307794
1220.0, 0.026462
1222.0, 0.0199294
1224.0, 0.00879178
1226.0, 0.00323206
1228.0, 0.00278348
1230.0, 0.00544086
1232.0, 0.00362192
1234.0, 0.00111295
1236.0, 0.00476809
1238.0, 0.00172137
1240.0, 0.00362904
1242.0, 0.00863888
1244.0, 0.00587883
1246.0, 0.00961952
1248.0, 0.0154594
1250.0, 0.0168843
1252.0, 0.0239498
1254.0, 0.0305523
1256.0, 0.0311574
1258.0, 0.0269156
1260.0, 0.0227853
1262.0, 0.0180686
1264.0, 0.0210942
1266.0, 0.0186095
1268.0, 0.018918
1270.0, 0.0176455
1272.0, 0.0180385
1274.0, 0.0112969
1276.0, 0.0171561
1278.0, 0.0104249
1280.0, 0.00700155
1282.0, 0.00447196
1284, 0.0
1286, 0.0
1288, 0.0
1290, 0.0
1292, 0.0
1294, 0.0
1296, 0.0
1298, 0.0
1300, 0.0
1302, 0.0
1304, 0.0
1306, 0.0
1308, 0.0
1310, 0.0
1312, 0.0
1314, 0.0
1316, 0.0
1318, 0.0
1320, 0.0
1322, 0.0
1324, 0.0
1326, 0.0
1328, 0.0
1330, 0.0
1332, 0.0
1334, 0.0
1336, 0.0
1338, 0.0
1340, 0.0
1342, 0.0
1344, 0.0
1346, 0.0
1348, 0.0
1350, 0.0
1352, 0.0
1354, 0.0
1356, 0.0
1358, 0.0
1360, 0.0
1362, 0.0
1364, 0.0
1366, 0.0
1368, 0.0
1370, 0.0
1372, 0.0
1374, 0.0
1376, 0.0
1378, 0.0
1380, 0.0
1382, 0.0
1384, 0.0
1386, 0.0
1388, 0.0
1390, 0.0
1392, 0.0
1394, 0.0
1396, 0.0
1398, 0.0
1400, 0.0
1402, 0.0
1404, 0.0
1406, 0.0
1408, 0.0
1410, 0.0
1412, 0.0
1414, 0.0
1416, 0.0
1418, 0.0
1420, 0.0
1422, 0.0
1424, 0.0
1426, 0.0
1428, 0.0
1430, 0.0
1432, 0.0
1434, 0.0
1436, 0.0
1438, 0.0
1440, 0.0
1442, 0.0
1444, 0.0
1446, 0.0
1448, 0.0
1450, 0.0
1452, 0.0
1454, 0.0
1456, 0.0
1458, 0.0
1460, 0.0
1462, 0.0
1464, 0.0
1466, 0.0
1468, 0.0
1470, 0.0
1472, 0.0
1474, 0.0
1476, 0.0
1478, 0.0
1480, 0.0
1482, 0.0
1484, 0.0
1486, 0.0
1488, 0.0
1490, 0.0
1492, 0.0
1494, 0.0
1496, 0.0
1498, 0.0
1500, 0.0
1502, 0.0
1504, 0.0
1506, 0.0
1508, 0.0
1510, 0.0
1512, 0.0
1514, 0.0
1516, 0.0
1518, 0.0
1520, 0.0
1522, 0.0
1524, 0.0
1526, 0.0
1528, 0.0
1530, 0.0
1532, 0.0
1534, 0.0
1536, 0.0
1538, 0.0
1540, 0.0
1542, 0.0
1544, 0.0
1546, 0.0
1548, 0.0
1550, 0.0
1552, 0.0
1554, 0.0
1556, 0.0
1558, 0.0
1560, 0.0
1562, 0.0
1564, 0.0
1566, 0.0
1568, 0.0
1570, 0.0
1572, 0.0
1574, 0.0
1576, 0.0
1578, 0.0
1580, 0.0
1582, 0.0
1584, 0.0
1586, 0.0
1588, 0.0
1590, 0.0
1592, 0.0
1594, 0.0
1596, 0.0
1598, 0.0
1599, 0.0