File: raw data/Dataset_2/Perovskite/Perovskite__R050456__Raman__532__0__unoriented__Raman_Data_Processed__30866.txt
30, 0.0
32, 0.0
34, 0.0
36, 0.0
38, 0.0
40, 0.0
42, 0.0
44, 0.0
46, 0.0
48, 0.0
50, 0.0
52, 0.0
54, 0.0
56, 0.0
58, 0.0
60, 0.0
62, 0.0
64, 0.0
66, 0.0
68, 0.0
70, 0.0
72, 0.0
74, 0.0
76, 0.0
78, 0.0
80, 0.0
82, 0.0
84, 0.0
86, 0.0
88, 0.0
90, 0.0
92, 0.0
94, 0.0
96, 0.0
98, 0.0
100, 0.0
102, 0.0
104, 0.0
106, 0.0
108, 0.0
110, 0.0
112, 0.0
114, 0.0
116, 0.0
118, 0.0
120, 0.0
122, 0.0
124, 0.0
126, 0.0
128, 0.0
130, 0.0
132, 0.0
134, 0.0
136, 0.0
138, 0.0
140, 0.0
142, 0.0
144, 0.0
146, 0.0
148, 0.0
150, 0.0
152, 0.0
154, 0.0
156, 0.0
158, 0.0
160, 0.0
162, 0.0
164.0, 0.000104446
166.0, 0.01384
168.0, 0.0184662
170.0, 0.0485922
172.0, 0.0868213
174.0, 0.10319
176.0, 0.144627
178.0, 0.165726
180.0, 0.144236
182.0, 0.128634
184.0, 0.0895131
186.0, 0.0778433
188.0, 0.0539419
190.0, 0.0273552
192.0, 0.0175919
194.0, 0.0100147
196.0, 0.00343262
198.0, 0.00580252
200.0, 0.00619017
202.0, 0.00426012
204.0, 0.0194149
206.0, 0.00763474
208.0, 0.0187601
210.0, 0.0283993
212.0, 0.0388367
214.0, 0.0810883
216.0, 0.101408
218.0, 0.134661
220.0, 0.156256
222.0, 0.168358
224.0, 0.182452
226.0, 0.187419
228.0, 0.178616
230.0, 0.218355
232.0, 0.222178
234.0, 0.252887
236.0, 0.309718
238.0, 0.359676
240.0, 0.407446
242.0, 0.446506
244.0, 0.422634
246.0, 0.364482
248.0, 0.269354
250.0, 0.185942
252.0, 0.107391
254.0, 0.0620001
256.0, 0.0350468
258.0, 0.00586586
260.0, 0.0233661
262.0, 0.0325694
264.0, 0.0267285
266.0, 0.0194944
268.0, 0.00701793
270.0, 0.0287094
272.0, 0.0598606
274.0, 0.117713
276.0, 0.159587
278.0, 0.192505
280.0, 0.230589
282.0, 0.240793
284.0, 0.226613
286.0, 0.226291
288.0, 0.227451
290.0, 0.204722
292.0, 0.207525
294.0, 0.206101
296.0, 0.189156
298.0, 0.162718
300.0, 0.165784
302.0, 0.162741
304.0, 0.14356
306.0, 0.163416
308.0, 0.158613
310.0, 0.156884
312.0, 0.161363
314.0, 0.158946
316.0, 0.165327
318.0, 0.185072
320.0, 0.201759
322.0, 0.215193
324.0, 0.241808
326.0, 0.27183
328.0, 0.319339
330.0, 0.338458
332.0, 0.357051
334.0, 0.380525
336.0, 0.380071
338.0, 0.368033
340.0, 0.355843
342.0, 0.336477
344.0, 0.324115
346.0, 0.297448
348.0, 0.279832
350.0, 0.275411
352.0, 0.256524
354.0, 0.239138
356.0, 0.240994
358.0, 0.217378
360.0, 0.215945
362.0, 0.199116
364.0, 0.204601
366.0, 0.185178
368.0, 0.182621
370.0, 0.171506
372.0, 0.181798
374.0, 0.187301
376.0, 0.179153
378.0, 0.180826
380.0, 0.180545
382.0, 0.187702
384.0, 0.198327
386.0, 0.196105
388.0, 0.191294
390.0, 0.177784
392.0, 0.173566
394.0, 0.164458
396.0, 0.152705
398.0, 0.148798
400.0, 0.137042
402.0, 0.127028
404.0, 0.0998813
406.0, 0.0982221
408.0, 0.0866924
410.0, 0.0888229
412.0, 0.063289
414.0, 0.0550178
416.0, 0.0411018
418.0, 0.0260305
420.0, 0.0149277
422.0, 0.0139767
424.0, 0.00390199
426.0, 0.0104602
428.0, 0.0162899
430.0, 0.0130633
432.0, 0.0268954
434.0, 0.0157274
436.0, 0.0150682
438.0, 0.0171594
440.0, 0.00952925
442.0, 0.00702629
444.0, 0.0107451
446.0, 0.0266249
448.0, 0.0351368
450.0, 0.064229
452.0, 0.0861478
454.0, 0.111323
456.0, 0.143952
458.0, 0.162158
460.0, 0.2056
462.0, 0.241398
464.0, 0.248547
466.0, 0.251661
468.0, 0.228004
470.0, 0.210061
472.0, 0.185315
474.0, 0.171627
476.0, 0.179239
478.0, 0.191222
480.0, 0.212131
482.0, 0.226266
484.0, 0.238585
486.0, 0.263468
488.0, 0.275819
490.0, 0.275897
492.0, 0.278475
494.0, 0.275113
496.0, 0.274998
498.0, 0.284733
500.0, 0.274658
502.0, 0.290484
504.0, 0.298939
506.0, 0.286242
508.0, 0.293288
510.0, 0.309633
512.0, 0.303778
514.0, 0.310111
516.0, 0.30533
518.0, 0.308138
520.0, 0.306537
522.0, 0.314524
524.0, 0.317315
526.0, 0.314063
528.0, 0.314514
530.0, 0.296693
532.0, 0.296305
534.0, 0.286175
536.0, 0.267465
538.0, 0.260547
540.0, 0.250782
542.0, 0.233948
544.0, 0.229702
546.0, 0.200149
548.0, 0.171053
550.0, 0.175631
552.0, 0.146518
554.0, 0.131678
556.0, 0.11184
558.0, 0.106216
560.0, 0.0946293
562.0, 0.0764829
564.0, 0.0703318
566.0, 0.0552365
568.0, 0.0354793
570.0, 0.036116
572.0, 0.027528
574.0, 0.0204091
576.0, 0.0130488
578.0, 0.0122602
580.0, 0.00640526
582.0, 0.00769608
584.0, 0.00121711
586.0, 0.00507576
588.0, 0.0110473
590.0, 0.00081251
592.0, 0.000673723
594.0, 0.00640376
596.0, 0.00492419
598.0, 0.00923861
600.0, 0.0045563
602.0, 0.0113187
604.0, 0.0164818
606.0, 0.0159575
608.0, 0.0289636
610.0, 0.040354
612.0, 0.0488155
614.0, 0.0545805
616.0, 0.058077
618.0, 0.0564121
620.0, 0.0688237
622.0, 0.0773432
624.0, 0.0903497
626.0, 0.0992626
628.0, 0.103116
630.0, 0.109585
632.0, 0.113186
634.0, 0.120654
636.0, 0.122683
638.0, 0.122855
640.0, 0.135665
642.0, 0.136871
644.0, 0.135913
646.0, 0.129561
648.0, 0.135323
650.0, 0.130757
652.0, 0.12556
654.0, 0.125818
656.0, 0.123979
658.0, 0.107749
660.0, 0.100493
662.0, 0.0886064
664.0, 0.0916116
666.0, 0.0790129
668.0, 0.079122
670.0, 0.0743966
672.0, 0.0639026
674.0, 0.0601851
676.0, 0.0452883
678.0, 0.0473142
680.0, 0.0407522
682.0, 0.0297091
684.0, 0.0300619
686.0, 0.0175857
688.0, 0.0146411
690.0, 0.0139792
692.0, 0.0100036
694.0, 0.0111382
696.0, 0.00328944
698.0, 0.0127542
700.0, 0.0114065
702.0, 0.0149642
704.0, 0.0182367
706.0, 0.012976
708.0, 0.016888
710.0, 0.00633888
712.0, 0.00437422
714.0, 0.00449961
716.0, 0.00382447
718.0, 0.0149179
720.0, 0.0152895
722.0, 0.0220271
724.0, 0.0382714
726.0, 0.0525648
728.0, 0.0605618
730.0, 0.0767068
732.0, 0.101964
734.0, 0.109883
736.0, 0.165603
738.0, 0.163331
740.0, 0.182496
742.0, 0.216501
744.0, 0.262961
746.0, 0.288752
748.0, 0.332807
750.0, 0.373614
752.0, 0.425541
754.0, 0.45639
756.0, 0.506778
758.0, 0.550806
760.0, 0.595229
762.0, 0.657305
764.0, 0.692896
766.0, 0.73651
768.0, 0.764527
770.0, 0.809696
772.0, 0.830027
774.0, 0.874774
776.0, 0.913415
778.0, 0.94037
780.0, 0.964122
782.0, 0.969155
784.0, 0.985008
786.0, 0.999439
788.0, 0.992865
790.0, 0.984357
792.0, 0.982728
794.0, 0.953157
796.0, 0.925482
798.0, 0.903515
800.0, 0.859304
802.0, 0.818192
804.0, 0.76705
806.0, 0.724665
808.0, 0.672683
810.0, 0.627143
812.0, 0.580666
814.0, 0.542556
816.0, 0.506547
818.0, 0.474383
820.0, 0.44516
822.0, 0.425975
824.0, 0.398096
826.0, 0.386751
828.0, 0.368669
830.0, 0.348866
832.0, 0.339166
834.0, 0.333833
836.0, 0.316885
838.0, 0.297507
840.0, 0.277176
842.0, 0.254842
844.0, 0.231326
846.0, 0.205055
848.0, 0.17512
850.0, 0.151825
852.0, 0.119449
854.0, 0.104038
856.0, 0.0797868
858.0, 0.0673988
860.0, 0.0542531
862.0, 0.0448465
864.0, 0.0347575
866.0, 0.02429
868.0, 0.00620013
870.0, 0.000308738
872.0, 0.00573491
874.0, 0.00552037
876.0, 0.00930843
878.0, 0.0162015
880.0, 0.00640458
882.0, 0.0100421
884.0, 0.0111806
886.0, 0.0111331
888.0, 0.00753134
890.0, 0.00765667
892.0, 0.00483929
894.0, 0.00704267
896.0, 0.0038753
898.0, 0.00297536
900.0, 0.000849433
902.0, 0.00975931
904.0, 0.00934463
906.0, 0.00950233
908.0, 0.0142899
910.0, 0.0138093
912.0, 0.0178909
914.0, 0.0187221
916.0, 0.0193936
918.0, 0.0263315
920.0, 0.0272124
922.0, 0.0287093
924.0, 0.028357
926.0, 0.0300945
928.0, 0.0308925
930.0, 0.032437
932.0, 0.0336702
934.0, 0.0340293
936.0, 0.0304945
938.0, 0.0334302
940.0, 0.0280146
942.0, 0.0293878
944.0, 0.0307411
946.0, 0.0258005
948.0, 0.0247762
950.0, 0.024282
952.0, 0.017598
954.0, 0.0202105
956.0, 0.0208003
958.0, 0.015073
960.0, 0.0153581
962.0, 0.0202504
964.0, 0.0140525
966.0, 0.00999369
968.0, 0.01256
970.0, 0.0128975
972.0, 0.0110129
974.0, 0.0105244
976.0, 0.0162413
978.0, 0.017914
980.0, 0.0153338
982.0, 0.0155037
984.0, 0.0106121
986.0, 0.0122242
988.0, 0.0161583
990.0, 0.0105282
992.0, 0.0158571
994.0, 0.0176684
996.0, 0.0114294
998.0, 0.010861
1000.0, 0.0168687
1002.0, 0.0163864
1004.0, 0.0141348
1006.0, 0.0152876
1008.0, 0.0116625
1010.0, 0.0169944
1012.0, 0.0150758
1014.0, 0.0175197
1016.0, 0.0219816
1018.0, 0.0185574
1020.0, 0.0218488
1022.0, 0.0216903
1024.0, 0.015763
1026.0, 0.0253838
1028.0, 0.0173437
1030.0, 0.021559
1032.0, 0.0194564
1034.0, 0.0233748
1036.0, 0.0205293
1038.0, 0.0243865
1040.0, 0.0185635
1042.0, 0.0247538
1044.0, 0.0205227
1046.0, 0.0252449
1048.0, 0.0195493
1050.0, 0.0191442
1052.0, 0.0208654
1054.0, 0.0158663
1056.0, 0.0149375
1058.0, 0.0189572
1060.0, 0.0169314
1062.0, 0.0166985
1064.0, 0.0168698
1066.0, 0.0140463
1068.0, 0.0152959
1070.0, 0.0131851
1072.0, 0.012584
1074.0, 0.0121747
1076.0, 0.0143726
1078.0, 0.0125084
1080.0, 0.012044
1082.0, 0.00482528
1084.0, 0.00905418
1086.0, 0.00631943
1088.0, 0.00419107
1090.0, 0.000238781
1092.0, 0.00198781
1094.0, 0.00446176
1096.0, 0.00386583
1098.0, 0.00185898
1100.0, 0.00330122
1102.0, 0.0023302
1104.0, 0.00333373
1106.0, 0.000144363
1108.0, 0.00164134
1110.0, 0.000195365
1112.0, 0.00327729
1114.0, 0.00158182
1116.0, 0.00218285
1118.0, 0.00124221
1120.0, 0.00188145
1122.0, 0.00348131
1124.0, 0.00118989
1126.0, 0.000506845
1128.0, 0.00301672
1130.0, 0.00198975
1132.0, 0.00221594
1134.0, 0.00138873
1136.0, 0.00199667
1138.0, 0.000269198
1140.0, 0.000460789
1142.0, 0.00290246
1144.0, 7.06099e-05
1146.0, 0.00327869
1148.0, 0.00467948
1150.0, 0.00197706
1152.0, 0.00229964
1154.0, 0.000659451
1156.0, 0.00459461
1158.0, 0.00346493
1160.0, 0.000671812
1162.0, 0.00375008
1164.0, 0.00118663
1166.0, 0.00457806
1168.0, 0.00521762
1170.0, 0.00527145
1172.0, 0.00589072
1174.0, 0.0071851
1176.0, 0.00139731
1178.0, 0.00596536
1180.0, 0.00546074
1182.0, 0.00621198
1184.0, 0.00887239
1186.0, 0.00306888
1188.0, 0.00596815
1190.0, 0.00295175
1192.0, 0.0024867
1194.0, 0.00540486
1196.0, 0.00299686
1198.0, 0.00868031
1200.0, 0.0060266
1202.0, 0.00349054
1204.0, 0.00414924
1206.0, 0.00611044
1208.0, 0.00706022
1210.0, 0.00487608
1212.0, 0.00282451
1214.0, 0.0055131
1216.0, 0.00326839
1218.0, 0.00330252
1220.0, 0.00193636
1222.0, 0.00592504
1224.0, 0.00439759
1226.0, 0.00144858
1228.0, 0.0060241
1230.0, 0.00313071
1232.0, 0.00451559
1234.0, 0.00227681
1236.0, 0.000916259
1238.0, 0.0052462
1240.0, 0.00672874
1242.0, 0.00215919
1244.0, 0.00435976
1246.0, 0.0027623
1248.0, 0.00505047
1250.0, 0.00231231
1252.0, 0.000427615
1254.0, 0.000318925
1256.0, 0.00579705
1258.0, 0.00292866
1260.0, 0.00512817
1262.0, 0.00508562
1264.0, 0.00322909
1266.0, 0.000672414
1268.0, 0.00672035
1270.0, 0.00356412
1272.0, 0.00261277
1274.0, 0.0058239
1276.0, 0.00119558
1278.0, 0.00582861
1280.0, 0.000587389
1282.0, 0.000870057
1284.0, 0.000702268
1286, 0.0
1288, 0.0
1290, 0.0
1292, 0.0
1294, 0.0
1296, 0.0
1298, 0.0
1300, 0.0
1302, 0.0
1304, 0.0
1306, 0.0
1308, 0.0
1310, 0.0
1312, 0.0
1314, 0.0
1316, 0.0
1318, 0.0
1320, 0.0
1322, 0.0
1324, 0.0
1326, 0.0
1328, 0.0
1330, 0.0
1332, 0.0
1334, 0.0
1336, 0.0
1338, 0.0
1340, 0.0
1342, 0.0
1344, 0.0
1346, 0.0
1348, 0.0
1350, 0.0
1352, 0.0
1354, 0.0
1356, 0.0
1358, 0.0
1360, 0.0
1362, 0.0
1364, 0.0
1366, 0.0
1368, 0.0
1370, 0.0
1372, 0.0
1374, 0.0
1376, 0.0
1378, 0.0
1380, 0.0
1382, 0.0
1384, 0.0
1386, 0.0
1388, 0.0
1390, 0.0
1392, 0.0
1394, 0.0
1396, 0.0
1398, 0.0
1400, 0.0
1402, 0.0
1404, 0.0
1406, 0.0
1408, 0.0
1410, 0.0
1412, 0.0
1414, 0.0
1416, 0.0
1418, 0.0
1420, 0.0
1422, 0.0
1424, 0.0
1426, 0.0
1428, 0.0
1430, 0.0
1432, 0.0
1434, 0.0
1436, 0.0
1438, 0.0
1440, 0.0
1442, 0.0
1444, 0.0
1446, 0.0
1448, 0.0
1450, 0.0
1452, 0.0
1454, 0.0
1456, 0.0
1458, 0.0
1460, 0.0
1462, 0.0
1464, 0.0
1466, 0.0
1468, 0.0
1470, 0.0
1472, 0.0
1474, 0.0
1476, 0.0
1478, 0.0
1480, 0.0
1482, 0.0
1484, 0.0
1486, 0.0
1488, 0.0
1490, 0.0
1492, 0.0
1494, 0.0
1496, 0.0
1498, 0.0
1500, 0.0
1502, 0.0
1504, 0.0
1506, 0.0
1508, 0.0
1510, 0.0
1512, 0.0
1514, 0.0
1516, 0.0
1518, 0.0
1520, 0.0
1522, 0.0
1524, 0.0
1526, 0.0
1528, 0.0
1530, 0.0
1532, 0.0
1534, 0.0
1536, 0.0
1538, 0.0
1540, 0.0
1542, 0.0
1544, 0.0
1546, 0.0
1548, 0.0
1550, 0.0
1552, 0.0
1554, 0.0
1556, 0.0
1558, 0.0
1560, 0.0
1562, 0.0
1564, 0.0
1566, 0.0
1568, 0.0
1570, 0.0
1572, 0.0
1574, 0.0
1576, 0.0
1578, 0.0
1580, 0.0
1582, 0.0
1584, 0.0
1586, 0.0
1588, 0.0
1590, 0.0
1592, 0.0
1594, 0.0
1596, 0.0
1598, 0.0
1599, 0.0