File: raw data/Dataset_2/Perovskite/Perovskite__R130037__Raman__532__0__unoriented__Raman_Data_Processed__37778.txt
30, 0.0
32, 0.0
34, 0.0
36, 0.0
38, 0.0
40, 0.0
42, 0.0
44, 0.0
46, 0.0
48, 0.0
50, 0.0
52, 0.0
54, 0.0
56, 0.0
58, 0.0
60, 0.0
62, 0.0
64, 0.0
66, 0.0
68, 0.0
70, 0.0
72, 0.0
74, 0.0
76, 0.0
78, 0.0
80, 0.0
82, 0.0
84, 0.0
86, 0.0
88, 0.0
90, 0.0
92, 0.0
94, 0.0
96, 0.0
98, 0.0
100, 0.0
102, 0.0
104, 0.0
106, 0.0
108, 0.0
110, 0.0
112, 0.0
114, 0.0
116, 0.0
118, 0.0
120, 0.0
122, 0.0
124, 0.0
126, 0.0
128, 0.0
130, 0.0
132, 0.0
134, 0.0
136, 0.0
138, 0.0
140, 0.0
142, 0.0
144, 0.0
146, 0.0
148, 0.0
150, 0.0
152, 0.0
154, 0.0
156, 0.0
158, 0.0
160, 0.0
162, 0.0
164, 0.0
166, 0.0
168, 0.0
170, 0.0
172, 0.0
174, 0.0
176, 0.0
178, 0.0
180.0, 0.00125685
182.0, 0.00407163
184.0, 0.0380889
186.0, 0.0417986
188.0, 0.0462078
190.0, 0.0764113
192.0, 0.0945712
194.0, 0.125246
196.0, 0.159487
198.0, 0.167273
200.0, 0.178989
202.0, 0.201622
204.0, 0.205901
206.0, 0.20654
208.0, 0.230327
210.0, 0.219792
212.0, 0.244184
214.0, 0.258348
216.0, 0.297031
218.0, 0.373612
220.0, 0.359011
222.0, 0.428159
224.0, 0.461923
226.0, 0.525421
228.0, 0.612936
230.0, 0.667409
232.0, 0.71539
234.0, 0.831272
236.0, 0.903311
238.0, 0.981895
240.0, 0.987847
242.0, 0.998521
244.0, 0.90528
246.0, 0.793702
248.0, 0.627527
250.0, 0.508515
252.0, 0.384226
254.0, 0.331438
256.0, 0.241172
258.0, 0.189457
260.0, 0.173637
262.0, 0.130259
264.0, 0.0957949
266.0, 0.0941275
268.0, 0.0820295
270.0, 0.0398271
272.0, 0.0341377
274.0, 0.042812
276.0, 0.0369361
278.0, 0.0164687
280.0, 0.0235783
282.0, 0.0208464
284.0, 0.0170607
286.0, 0.0177877
288.0, 0.00798102
290.0, 0.000699772
292.0, 0.00834464
294.0, 0.0126428
296.0, 0.0132434
298.0, 0.0101668
300.0, 0.023439
302.0, 0.0312997
304.0, 0.0481265
306.0, 0.0833862
308.0, 0.0805349
310.0, 0.107275
312.0, 0.115644
314.0, 0.155724
316.0, 0.194042
318.0, 0.218445
320.0, 0.226827
322.0, 0.255364
324.0, 0.260586
326.0, 0.281869
328.0, 0.323085
330.0, 0.32637
332.0, 0.33108
334.0, 0.332176
336.0, 0.328749
338.0, 0.300582
340.0, 0.302112
342.0, 0.275874
344.0, 0.263483
346.0, 0.23013
348.0, 0.219159
350.0, 0.175732
352.0, 0.163037
354.0, 0.135136
356.0, 0.12552
358.0, 0.145596
360.0, 0.101967
362.0, 0.112879
364.0, 0.0962366
366.0, 0.0922117
368.0, 0.0828067
370.0, 0.0755481
372.0, 0.078519
374.0, 0.069135
376.0, 0.0649349
378.0, 0.0408209
380.0, 0.0472072
382.0, 0.0314438
384.0, 0.0343481
386.0, 0.0303843
388.0, 0.0397775
390.0, 0.0140869
392.0, 0.0277939
394.0, 0.00774233
396.0, 0.0166228
398.0, 0.00879343
400.0, 0.0137378
402.0, 0.0176856
404.0, 0.0132641
406.0, 0.00612376
408.0, 0.0117913
410.0, 0.00569255
412.0, 0.00717179
414.0, 0.00167817
416.0, 0.0170127
418.0, 0.00717785
420.0, 0.0117071
422.0, 0.00801367
424.0, 0.00396483
426.0, 0.00401772
428.0, 0.000652835
430.0, 0.00459181
432.0, 0.0212417
434.0, 0.0252632
436.0, 0.0309741
438.0, 0.0776754
440.0, 0.0792413
442.0, 0.124041
444.0, 0.187123
446.0, 0.248357
448.0, 0.335356
450.0, 0.373071
452.0, 0.456922
454.0, 0.574479
456.0, 0.669681
458.0, 0.77171
460.0, 0.807665
462.0, 0.781842
464.0, 0.667404
466.0, 0.526867
468.0, 0.393042
470.0, 0.289087
472.0, 0.208781
474.0, 0.162207
476.0, 0.116245
478.0, 0.0954244
480.0, 0.075018
482.0, 0.0780149
484.0, 0.0494229
486.0, 0.0590245
488.0, 0.059207
490.0, 0.0594312
492.0, 0.0690625
494.0, 0.0484387
496.0, 0.0699883
498.0, 0.0684354
500.0, 0.0828487
502.0, 0.0995858
504.0, 0.0996209
506.0, 0.100109
508.0, 0.107342
510.0, 0.106706
512.0, 0.142919
514.0, 0.123595
516.0, 0.133893
518.0, 0.142909
520.0, 0.150639
522.0, 0.149073
524.0, 0.162299
526.0, 0.157978
528.0, 0.155646
530.0, 0.17424
532.0, 0.151661
534.0, 0.157834
536.0, 0.158276
538.0, 0.163205
540.0, 0.143588
542.0, 0.15129
544.0, 0.130731
546.0, 0.131159
548.0, 0.142881
550.0, 0.126799
552.0, 0.109149
554.0, 0.117865
556.0, 0.118128
558.0, 0.112737
560.0, 0.108002
562.0, 0.0837313
564.0, 0.0966288
566.0, 0.0706207
568.0, 0.0679745
570.0, 0.063907
572.0, 0.0607791
574.0, 0.0497647
576.0, 0.0505095
578.0, 0.0385936
580.0, 0.0343341
582.0, 0.0319132
584.0, 0.0377121
586.0, 0.0287194
588.0, 0.0346218
590.0, 0.0178032
592.0, 0.0163335
594.0, 0.0178065
596.0, 0.00381526
598.0, 0.00289342
600.0, 0.00178568
602.0, 0.00255256
604.0, 0.00323013
606.0, 0.00346702
608.0, 0.000587761
610.0, 0.000972268
612.0, 0.00191139
614.0, 0.0115778
616.0, 0.0101106
618.0, 0.00694847
620.0, 0.00187644
622.0, 0.0102069
624.0, 0.00416019
626.0, 0.0104553
628.0, 0.018703
630.0, 0.00660195
632.0, 0.00570546
634.0, 0.00225142
636.0, 0.0196931
638.0, 0.018467
640.0, 0.0124834
642.0, 0.0369556
644.0, 0.038844
646.0, 0.0423961
648.0, 0.0389256
650.0, 0.0156631
652.0, 0.0259828
654.0, 0.0214905
656.0, 0.04091
658.0, 0.0206223
660.0, 0.034167
662.0, 0.0309846
664.0, 0.0236099
666.0, 0.0251453
668.0, 0.0294638
670.0, 0.0198184
672.0, 0.01853
674.0, 0.0320952
676.0, 0.0189027
678.0, 0.0160194
680.0, 0.00350901
682.0, 0.0149579
684.0, 0.0117829
686.0, 0.00862126
688.0, 0.000409148
690.0, 0.00774082
692.0, 0.00509946
694.0, 0.00470752
696.0, 0.00279467
698.0, 0.00124536
700.0, 0.00618564
702.0, 0.0165052
704.0, 0.00116817
706.0, 0.00341154
708.0, 0.00413665
710.0, 0.00951274
712.0, 0.0161155
714.0, 0.00996674
716.0, 0.00543788
718.0, 0.00172875
720.0, 0.0203572
722.0, 0.0111179
724.0, 0.010139
726.0, 0.0172175
728.0, 0.0339962
730.0, 0.0183856
732.0, 0.0410581
734.0, 0.0508627
736.0, 0.0668032
738.0, 0.0833038
740.0, 0.093387
742.0, 0.114422
744.0, 0.118712
746.0, 0.142744
748.0, 0.15478
750.0, 0.178567
752.0, 0.2032
754.0, 0.22434
756.0, 0.248609
758.0, 0.282293
760.0, 0.297072
762.0, 0.326691
764.0, 0.357005
766.0, 0.393684
768.0, 0.400499
770.0, 0.452911
772.0, 0.449626
774.0, 0.500262
776.0, 0.503472
778.0, 0.537589
780.0, 0.545085
782.0, 0.568646
784.0, 0.583865
786.0, 0.580928
788.0, 0.603128
790.0, 0.606127
792.0, 0.613747
794.0, 0.623735
796.0, 0.627311
798.0, 0.600988
800.0, 0.603692
802.0, 0.588901
804.0, 0.573228
806.0, 0.57132
808.0, 0.561272
810.0, 0.551497
812.0, 0.535979
814.0, 0.530625
816.0, 0.536774
818.0, 0.517907
820.0, 0.501615
822.0, 0.503693
824.0, 0.482976
826.0, 0.472783
828.0, 0.469428
830.0, 0.42888
832.0, 0.408688
834.0, 0.376679
836.0, 0.37135
838.0, 0.350312
840.0, 0.323598
842.0, 0.325684
844.0, 0.268829
846.0, 0.243121
848.0, 0.214503
850.0, 0.192916
852.0, 0.171204
854.0, 0.158381
856.0, 0.139766
858.0, 0.112794
860.0, 0.0990488
862.0, 0.0878569
864.0, 0.0688472
866.0, 0.0578326
868.0, 0.0528644
870.0, 0.0341177
872.0, 0.0467819
874.0, 0.0220916
876.0, 0.0146216
878.0, 0.0166903
880.0, 0.00349225
882.0, 0.00691623
884.0, 0.0169986
886.0, 0.00664844
888.0, 0.0123402
890.0, 0.00380428
892.0, 0.0135083
894.0, 0.00219666
896.0, 0.00995947
898.0, 0.0032507
900.0, 0.0011869
902.0, 0.00515865
904.0, 0.00782682
906.0, 0.0119826
908.0, 0.0146221
910.0, 0.000376527
912.0, 0.00241768
914.0, 0.00784793
916.0, 0.00588665
918.0, 0.0114469
920.0, 0.0200304
922.0, 0.0200177
924.0, 0.0169542
926.0, 0.0343875
928.0, 0.0238681
930.0, 0.0246317
932.0, 0.0149187
934.0, 0.0243573
936.0, 0.0271471
938.0, 0.0289655
940.0, 0.0181513
942.0, 0.030822
944.0, 0.0267531
946.0, 0.0322042
948.0, 0.0267539
950.0, 0.0267488
952.0, 0.0309575
954.0, 0.0142807
956.0, 0.0246962
958.0, 0.0319193
960.0, 0.0251064
962.0, 0.0292746
964.0, 0.0164056
966.0, 0.0205508
968.0, 0.0279231
970.0, 0.015414
972.0, 0.0159253
974.0, 0.0143451
976.0, 0.0113329
978.0, 0.024245
980.0, 0.0126542
982.0, 0.014166
984.0, 0.0241712
986.0, 0.0156673
988.0, 0.0144383
990.0, 0.0229432
992.0, 0.0224124
994.0, 0.0163868
996.0, 0.0211122
998.0, 0.018129
1000.0, 0.0190814
1002.0, 0.0127348
1004.0, 0.0121293
1006.0, 0.015402
1008.0, 0.0194087
1010.0, 0.0062895
1012.0, 0.0194093
1014.0, 0.0126099
1016.0, 0.0171713
1018.0, 0.0152523
1020.0, 0.0118632
1022.0, 0.0154763
1024.0, 0.011965
1026.0, 0.014177
1028.0, 0.0132257
1030.0, 0.0124232
1032.0, 0.0179184
1034.0, 0.0124972
1036.0, 0.0165782
1038.0, 0.0177544
1040.0, 0.0189532
1042.0, 0.00677041
1044.0, 0.0212487
1046.0, 0.0164256
1048.0, 0.00491834
1050.0, 0.0108838
1052.0, 0.0178795
1054.0, 0.0122863
1056.0, 0.0102298
1058.0, 0.0115043
1060.0, 0.00396706
1062.0, 0.00921532
1064.0, 0.0205575
1066.0, 0.00587861
1068.0, 0.00189461
1070.0, 0.0131324
1072.0, 0.00694927
1074.0, 0.00752684
1076.0, 0.00213383
1078.0, 0.00284476
1080.0, 0.00814926
1082.0, 0.00727263
1084.0, 0.0110906
1086.0, 0.0138978
1088.0, 0.0142667
1090.0, 0.0112458
1092.0, 0.00825404
1094.0, 0.00225284
1096.0, 0.0063195
1098.0, 0.00263912
1100.0, 0.00194538
1102.0, 0.00266706
1104.0, 0.0100021
1106.0, 0.00141541
1108.0, 0.00270258
1110.0, 0.00732045
1112.0, 0.0057537
1114.0, 0.00517624
1116.0, 0.012228
1118.0, 0.00851281
1120.0, 0.0127559
1122.0, 0.0207652
1124.0, 0.0106633
1126.0, 0.00594318
1128.0, 0.00807356
1130.0, 0.00847023
1132.0, 0.00755758
1134.0, 0.00655264
1136.0, 0.00571717
1138.0, 0.00434423
1140.0, 0.00200485
1142.0, 0.00237887
1144.0, 0.0120565
1146.0, 0.0128268
1148.0, 0.00254614
1150.0, 0.0169128
1152.0, 0.00702521
1154.0, 0.00504806
1156.0, 0.00759407
1158.0, 0.00906659
1160.0, 0.00378286
1162.0, 0.00528705
1164.0, 0.0051454
1166.0, 0.00627979
1168.0, 0.00542504
1170.0, 0.00312353
1172.0, 0.00707237
1174.0, 0.0125017
1176.0, 0.00554793
1178.0, 0.0122136
1180.0, 0.00945553
1182.0, 0.00939766
1184.0, 0.00990968
1186.0, 0.0220251
1188.0, 0.0139938
1190.0, 0.0161572
1192.0, 0.00124134
1194.0, 0.00835597
1196.0, 0.0154821
1198.0, 0.0062732
1200.0, 0.00870789
1202.0, 0.00850652
1204.0, 0.0095031
1206.0, 0.00596586
1208.0, 0.00437298
1210.0, 0.013044
1212.0, 0.012684
1214.0, 0.0139584
1216.0, 0.00654648
1218.0, 0.00355708
1220.0, 0.010919
1222.0, 0.0124536
1224.0, 0.0101369
1226.0, 0.00349288
1228.0, 0.00675679
1230.0, 0.0151365
1232.0, 0.00590858
1234.0, 0.0109897
1236.0, 0.00142111
1238.0, 0.0093517
1240.0, 0.00342681
1242.0, 0.0103357
1244.0, 0.00716928
1246.0, 0.0117024
1248.0, 0.0208899
1250.0, 0.00173498
1252.0, 0.015164
1254.0, 0.00362738
1256.0, 0.00575259
1258.0, 0.0106092
1260.0, 0.013719
1262.0, 0.0205519
1264.0, 0.0161324
1266.0, 0.0172076
1268.0, 0.0131358
1270.0, 0.00804471
1272.0, 0.01098
1274.0, 0.00713231
1276.0, 0.00811699
1278.0, 0.0210623
1280.0, 0.00706627
1282.0, 0.0270059
1284.0, 0.00492191
1286.0, 0.0130378
1288.0, 0.00738368
1290.0, 0.0142222
1292.0, 0.00634929
1294.0, 0.00289397
1296.0, 0.00305546
1298.0, 0.0100219
1300.0, 0.00430258
1302, 0.0
1304, 0.0
1306, 0.0
1308, 0.0
1310, 0.0
1312, 0.0
1314, 0.0
1316, 0.0
1318, 0.0
1320, 0.0
1322, 0.0
1324, 0.0
1326, 0.0
1328, 0.0
1330, 0.0
1332, 0.0
1334, 0.0
1336, 0.0
1338, 0.0
1340, 0.0
1342, 0.0
1344, 0.0
1346, 0.0
1348, 0.0
1350, 0.0
1352, 0.0
1354, 0.0
1356, 0.0
1358, 0.0
1360, 0.0
1362, 0.0
1364, 0.0
1366, 0.0
1368, 0.0
1370, 0.0
1372, 0.0
1374, 0.0
1376, 0.0
1378, 0.0
1380, 0.0
1382, 0.0
1384, 0.0
1386, 0.0
1388, 0.0
1390, 0.0
1392, 0.0
1394, 0.0
1396, 0.0
1398, 0.0
1400, 0.0
1402, 0.0
1404, 0.0
1406, 0.0
1408, 0.0
1410, 0.0
1412, 0.0
1414, 0.0
1416, 0.0
1418, 0.0
1420, 0.0
1422, 0.0
1424, 0.0
1426, 0.0
1428, 0.0
1430, 0.0
1432, 0.0
1434, 0.0
1436, 0.0
1438, 0.0
1440, 0.0
1442, 0.0
1444, 0.0
1446, 0.0
1448, 0.0
1450, 0.0
1452, 0.0
1454, 0.0
1456, 0.0
1458, 0.0
1460, 0.0
1462, 0.0
1464, 0.0
1466, 0.0
1468, 0.0
1470, 0.0
1472, 0.0
1474, 0.0
1476, 0.0
1478, 0.0
1480, 0.0
1482, 0.0
1484, 0.0
1486, 0.0
1488, 0.0
1490, 0.0
1492, 0.0
1494, 0.0
1496, 0.0
1498, 0.0
1500, 0.0
1502, 0.0
1504, 0.0
1506, 0.0
1508, 0.0
1510, 0.0
1512, 0.0
1514, 0.0
1516, 0.0
1518, 0.0
1520, 0.0
1522, 0.0
1524, 0.0
1526, 0.0
1528, 0.0
1530, 0.0
1532, 0.0
1534, 0.0
1536, 0.0
1538, 0.0
1540, 0.0
1542, 0.0
1544, 0.0
1546, 0.0
1548, 0.0
1550, 0.0
1552, 0.0
1554, 0.0
1556, 0.0
1558, 0.0
1560, 0.0
1562, 0.0
1564, 0.0
1566, 0.0
1568, 0.0
1570, 0.0
1572, 0.0
1574, 0.0
1576, 0.0
1578, 0.0
1580, 0.0
1582, 0.0
1584, 0.0
1586, 0.0
1588, 0.0
1590, 0.0
1592, 0.0
1594, 0.0
1596, 0.0
1598, 0.0
1599, 0.0