File: raw data/Dataset_2/Ferronigerite2N1S/Ferronigerite2N1S__R120083__Raman__780__0__unoriented__Raman_Data_Processed__36510.txt
30, 0.0
32, 0.0
34, 0.0
36, 0.0
38, 0.0
40, 0.0
42, 0.0
44, 0.0
46, 0.0
48, 0.0
50, 0.0
52, 0.0
54, 0.0
56, 0.0
58, 0.0
60, 0.0
62, 0.0
64, 0.0
66, 0.0
68, 0.0
70, 0.0
72, 0.0
74, 0.0
76, 0.0
78, 0.0
80, 0.0
82, 0.0
84, 0.0
86, 0.0
88, 0.0
90, 0.0
92, 0.0
94, 0.0
96, 0.0
98, 0.0
100, 0.0
102, 0.0
104, 0.0
106, 0.0
108, 0.0
110, 0.0
112, 0.0
114, 0.0
116, 0.0
118, 0.0
120, 0.0
122.0, 0.0040048
124.0, 0.0324668
126.0, 0.0662107
128.0, 0.0857575
130.0, 0.0618535
132.0, 0.0190785
134.0, 0.0026981
136.0, 0.00283421
138.0, 0.00427221
140.0, 0.00958788
142.0, 0.00702269
144.0, 0.0102924
146.0, 0.0107146
148.0, 0.008515
150.0, 0.00339341
152.0, 0.0024842
154.0, 0.00390883
156.0, 0.00232758
158.0, 0.00288266
160.0, 0.00159111
162.0, 0.00499968
164.0, 0.0168792
166.0, 0.0228741
168.0, 0.0184831
170.0, 0.0154407
172.0, 0.01322
174.0, 0.0170272
176.0, 0.0255637
178.0, 0.0379667
180.0, 0.0584897
182.0, 0.0719357
184.0, 0.0972742
186.0, 0.118719
188.0, 0.144731
190.0, 0.17544
192.0, 0.21762
194.0, 0.255396
196.0, 0.296004
198.0, 0.333109
200.0, 0.363998
202.0, 0.394573
204.0, 0.424282
206.0, 0.442627
208.0, 0.451421
210.0, 0.454023
212.0, 0.454945
214.0, 0.456326
216.0, 0.452145
218.0, 0.453134
220.0, 0.443954
222.0, 0.440405
224.0, 0.432423
226.0, 0.416477
228.0, 0.395264
230.0, 0.371774
232.0, 0.348362
234.0, 0.324281
236.0, 0.293136
238.0, 0.272415
240.0, 0.237255
242.0, 0.199119
244.0, 0.175445
246.0, 0.156065
248.0, 0.142966
250.0, 0.141209
252.0, 0.137587
254.0, 0.144415
256.0, 0.149591
258.0, 0.161257
260.0, 0.188417
262.0, 0.216657
264.0, 0.241998
266.0, 0.253938
268.0, 0.257143
270.0, 0.237512
272.0, 0.199366
274.0, 0.151033
276.0, 0.104054
278.0, 0.0654257
280.0, 0.0473607
282.0, 0.0273807
284.0, 0.00920227
286.0, 0.0073922
288.0, 0.00215984
290.0, 0.00163667
292.0, 0.00128668
294.0, 0.00218029
296.0, 0.00760511
298.0, 0.00687614
300.0, 0.00357306
302.0, 0.00314035
304.0, 0.00138355
306.0, 0.00587061
308.0, 0.00905547
310.0, 0.00801378
312.0, 0.0118329
314.0, 0.0179373
316.0, 0.0297108
318.0, 0.0331651
320.0, 0.0397239
322.0, 0.0449102
324.0, 0.0553583
326.0, 0.0628317
328.0, 0.0669276
330.0, 0.0795937
332.0, 0.0774729
334.0, 0.0749393
336.0, 0.075418
338.0, 0.0775914
340.0, 0.0724781
342.0, 0.0635526
344.0, 0.0632725
346.0, 0.0560702
348.0, 0.0517571
350.0, 0.0492632
352.0, 0.0438167
354.0, 0.047876
356.0, 0.0460553
358.0, 0.0388476
360.0, 0.0309669
362.0, 0.0290106
364.0, 0.0249914
366.0, 0.0210224
368.0, 0.0244442
370.0, 0.0247421
372.0, 0.0197966
374.0, 0.0136149
376.0, 0.00623369
378.0, 0.00309096
380.0, 0.00153925
382.0, 0.000804606
384.0, 0.00286718
386.0, 0.00895578
388.0, 0.00973057
390.0, 0.00662276
392.0, 0.00437113
394.0, 0.00244603
396.0, 0.00651544
398.0, 0.00588945
400.0, 0.00496177
402.0, 0.0123893
404.0, 0.00986423
406.0, 0.0149141
408.0, 0.0160922
410.0, 0.0172044
412.0, 0.0254225
414.0, 0.0309142
416.0, 0.0414464
418.0, 0.0396784
420.0, 0.0474673
422.0, 0.0554715
424.0, 0.0611157
426.0, 0.0641377
428.0, 0.0692652
430.0, 0.0760943
432.0, 0.0843272
434.0, 0.0938829
436.0, 0.105371
438.0, 0.119535
440.0, 0.135487
442.0, 0.15821
444.0, 0.190071
446.0, 0.233332
448.0, 0.283187
450.0, 0.337613
452.0, 0.394879
454.0, 0.471547
456.0, 0.55014
458.0, 0.647792
460.0, 0.770915
462.0, 0.891642
464.0, 0.988783
466.0, 0.99117
468.0, 0.936505
470.0, 0.844065
472.0, 0.752695
474.0, 0.686932
476.0, 0.629703
478.0, 0.595289
480.0, 0.595693
482.0, 0.610349
484.0, 0.644905
486.0, 0.689584
488.0, 0.74805
490.0, 0.792949
492.0, 0.776185
494.0, 0.682405
496.0, 0.535729
498.0, 0.389612
500.0, 0.274383
502.0, 0.192329
504.0, 0.148055
506.0, 0.106799
508.0, 0.0781763
510.0, 0.0625199
512.0, 0.0527607
514.0, 0.0445762
516.0, 0.0427529
518.0, 0.0298981
520.0, 0.0251202
522.0, 0.0244676
524.0, 0.0256396
526.0, 0.0275452
528.0, 0.034846
530.0, 0.0385395
532.0, 0.0411714
534.0, 0.0380677
536.0, 0.0427157
538.0, 0.039427
540.0, 0.034744
542.0, 0.0322016
544.0, 0.0269393
546.0, 0.0213353
548.0, 0.0183802
550.0, 0.0136235
552.0, 0.0103859
554.0, 0.00617063
556.0, 0.0017225
558.0, 0.00350202
560.0, 0.00377457
562.0, 0.00773701
564.0, 0.0123345
566.0, 0.011273
568.0, 0.00773696
570.0, 0.00206772
572.0, 0.00112252
574.0, 0.00310964
576.0, 0.00968782
578.0, 0.0192847
580.0, 0.0286778
582.0, 0.0445599
584.0, 0.0544147
586.0, 0.07116
588.0, 0.0735064
590.0, 0.0583205
592.0, 0.0477556
594.0, 0.0339072
596.0, 0.0249486
598.0, 0.0212937
600.0, 0.0175333
602.0, 0.0264697
604.0, 0.0284869
606.0, 0.0246794
608.0, 0.0276865
610.0, 0.0267679
612.0, 0.0284852
614.0, 0.029075
616.0, 0.0338721
618.0, 0.0347563
620.0, 0.0352747
622.0, 0.0301972
624.0, 0.0250899
626.0, 0.0144607
628.0, 0.00869919
630.0, 0.0112535
632.0, 0.00489615
634.0, 0.010722
636.0, 0.00677203
638.0, 0.0058323
640.0, 0.00499729
642.0, 0.00756831
644.0, 0.00610446
646.0, 0.00785279
648.0, 0.00201898
650.0, 0.00842995
652.0, 0.00290324
654.0, 0.00333619
656.0, 0.0035134
658.0, 0.00521383
660.0, 0.00106578
662.0, 0.000759961
664.0, 0.00436117
666.0, 0.00349382
668.0, 0.00769527
670.0, 0.013987
672.0, 0.0204191
674.0, 0.0270641
676.0, 0.0323434
678.0, 0.0397124
680.0, 0.0485921
682.0, 0.0529859
684.0, 0.0641664
686.0, 0.0718125
688.0, 0.0840935
690.0, 0.0905544
692.0, 0.100684
694.0, 0.105829
696.0, 0.111603
698.0, 0.121417
700.0, 0.127421
702.0, 0.126739
704.0, 0.13066
706.0, 0.121798
708.0, 0.121757
710.0, 0.116625
712.0, 0.0956402
714.0, 0.0805948
716.0, 0.0600459
718.0, 0.0415859
720.0, 0.0317849
722.0, 0.0221164
724.0, 0.0127894
726.0, 0.00919046
728.0, 0.00927414
730.0, 0.0136644
732.0, 0.0209437
734.0, 0.0156345
736.0, 0.0163832
738.0, 0.0246684
740.0, 0.0269638
742.0, 0.0349455
744.0, 0.0408868
746.0, 0.0576169
748.0, 0.0742934
750.0, 0.101457
752.0, 0.121787
754.0, 0.147593
756.0, 0.173848
758.0, 0.19791
760.0, 0.216569
762.0, 0.222452
764.0, 0.208506
766.0, 0.1882
768.0, 0.156781
770.0, 0.108968
772.0, 0.0808821
774.0, 0.0510739
776.0, 0.0324434
778.0, 0.0231399
780.0, 0.0118248
782.0, 0.001277
784.0, 0.00387397
786.0, 0.00702145
788.0, 0.00968522
790.0, 0.00253982
792.0, 0.0109966
794.0, 0.00944959
796.0, 0.0104561
798.0, 0.0074724
800.0, 0.0136048
802.0, 0.0216905
804.0, 0.0176693
806.0, 0.0261369
808.0, 0.0313325
810.0, 0.0317531
812.0, 0.0307563
814.0, 0.0255669
816.0, 0.0260767
818.0, 0.0281666
820.0, 0.0285357
822.0, 0.0261984
824.0, 0.024915
826.0, 0.0167644
828.0, 0.0170888
830.0, 0.0196076
832.0, 0.022598
834.0, 0.0213937
836.0, 0.0299499
838.0, 0.0391821
840.0, 0.0531431
842.0, 0.0651102
844.0, 0.0880966
846.0, 0.108536
848.0, 0.132939
850.0, 0.166229
852.0, 0.205902
854.0, 0.233816
856.0, 0.264508
858.0, 0.291311
860.0, 0.31162
862.0, 0.312715
864.0, 0.311916
866.0, 0.290356
868.0, 0.267885
870.0, 0.23786
872.0, 0.203882
874.0, 0.17634
876.0, 0.150192
878.0, 0.131729
880.0, 0.106051
882.0, 0.0909627
884.0, 0.080659
886.0, 0.0739203
888.0, 0.0552812
890.0, 0.0420504
892.0, 0.0350246
894.0, 0.0261962
896.0, 0.020528
898.0, 0.0108193
900.0, 0.0139662
902.0, 0.00842022
904.0, 0.00158454
906.0, 0.00332631
908.0, 0.00349604
910.0, 0.00132221
912.0, 0.000767389
914.0, 0.00237251
916.0, 0.00231772
918.0, 0.00262347
920.0, 0.00229694
922.0, 0.000752089
924.0, 0.00102312
926.0, 0.00111676
928.0, 7.97847e-05
930.0, 0.000605681
932.0, 0.00789358
934.0, 0.00583516
936.0, 0.0139396
938.0, 0.0080443
940.0, 0.0117781
942.0, 0.00707115
944.0, 0.010762
946.0, 0.0139618
948.0, 0.0165563
950.0, 0.025389
952.0, 0.0264772
954.0, 0.0351654
956.0, 0.0436197
958.0, 0.0429386
960.0, 0.0527509
962.0, 0.0550155
964.0, 0.0554961
966.0, 0.0615869
968.0, 0.0684288
970.0, 0.0588785
972.0, 0.050435
974.0, 0.0480264
976.0, 0.039717
978.0, 0.0372965
980.0, 0.0345706
982.0, 0.0413808
984.0, 0.0356987
986.0, 0.0184528
988.0, 0.0178843
990.0, 0.0169488
992.0, 0.00816939
994.0, 0.0094829
996.0, 0.00780576
998.0, 0.00627003
1000.0, 0.00311877
1002.0, 0.00413624
1004.0, 0.00747248
1006.0, 0.00200858
1008.0, 0.00380242
1010.0, 0.00114273
1012.0, 0.00168927
1014.0, 0.00247661
1016.0, 0.00789491
1018.0, 0.00980293
1020.0, 0.00468557
1022.0, 0.0059409
1024.0, 0.00301239
1026.0, 0.00588499
1028.0, 0.00053568
1030.0, 0.0114403
1032.0, 0.00878024
1034.0, 0.00257958
1036.0, 0.00582969
1038.0, 0.00907771
1040.0, 0.00538545
1042.0, 0.00583801
1044.0, 0.00668611
1046.0, 0.0065387
1048.0, 0.00614441
1050.0, 0.00438625
1052.0, 0.0041968
1054.0, 0.00876495
1056.0, 0.0170197
1058.0, 0.013767
1060.0, 0.0168659
1062.0, 0.0108075
1064.0, 0.00802143
1066.0, 0.00772055
1068.0, 0.00264202
1070.0, 0.00738077
1072.0, 0.00727703
1074.0, 0.00116594
1076.0, 0.00359306
1078.0, 0.00262531
1080.0, 0.00163581
1082.0, 0.00179614
1084.0, 0.00558027
1086.0, 0.00135731
1088.0, 0.00577457
1090.0, 0.000429155
1092.0, 0.0027086
1094.0, 0.0050716
1096.0, 0.000557964
1098.0, 0.00506346
1100.0, 0.00193133
1102.0, 0.00117319
1104.0, 0.00177557
1106.0, 0.000720123
1108.0, 0.00303273
1110.0, 0.00286751
1112.0, 0.00204644
1114.0, 0.00248516
1116.0, 0.00176634
1118.0, 0.000737621
1120.0, 0.00166854
1122.0, 0.00734611
1124.0, 0.00270028
1126.0, 0.00408375
1128.0, 0.00577443
1130.0, 0.00444586
1132.0, 0.00196487
1134.0, 0.00136119
1136.0, 0.00561142
1138.0, 0.00468457
1140.0, 0.00446887
1142.0, 0.0042341
1144.0, 0.00419988
1146.0, 0.00332725
1148.0, 0.00605888
1150.0, 0.00147696
1152.0, 0.00449575
1154.0, 0.00616995
1156.0, 0.00688883
1158.0, 0.00856636
1160.0, 0.00971918
1162.0, 0.0105167
1164.0, 0.0110253
1166.0, 0.0044107
1168.0, 0.00893939
1170.0, 0.0142347
1172.0, 0.0101297
1174.0, 0.0177226
1176.0, 0.0115212
1178.0, 0.00886342
1180.0, 0.00908544
1182.0, 0.00954607
1184.0, 0.00361761
1186.0, 0.00835961
1188.0, 0.00704491
1190.0, 0.00666346
1192.0, 0.00543043
1194.0, 0.00872597
1196.0, 0.00520302
1198.0, 0.00906408
1200.0, 0.00600703
1202.0, 0.00951784
1204.0, 0.0121481
1206.0, 0.0126585
1208.0, 0.0038669
1210.0, 0.00450594
1212.0, 0.00345476
1214.0, 0.00921399
1216.0, 0.0110699
1218.0, 0.00680167
1220.0, 0.0106661
1222.0, 0.00972338
1224.0, 0.00783528
1226.0, 0.00412893
1228.0, 0.00494654
1230.0, 0.00505768
1232.0, 0.00566487
1234.0, 0.00616405
1236.0, 0.0068164
1238.0, 0.00223247
1240.0, 0.0049491
1242.0, 0.00399526
1244.0, 0.00375348
1246.0, 0.00591194
1248.0, 0.00299076
1250.0, 0.0038019
1252.0, 0.00449831
1254.0, 0.00406348
1256.0, 0.00534028
1258.0, 0.00180754
1260.0, 0.00686045
1262.0, 0.00372593
1264.0, 0.0137214
1266.0, 0.0163488
1268.0, 0.0134051
1270.0, 0.0068513
1272.0, 0.00506371
1274.0, 0.0114684
1276.0, 0.00645292
1278.0, 0.00797194
1280.0, 8.64747e-05
1282.0, 0.00512934
1284.0, 0.00252981
1286, 0.0
1288, 0.0
1290, 0.0
1292, 0.0
1294, 0.0
1296, 0.0
1298, 0.0
1300, 0.0
1302, 0.0
1304, 0.0
1306, 0.0
1308, 0.0
1310, 0.0
1312, 0.0
1314, 0.0
1316, 0.0
1318, 0.0
1320, 0.0
1322, 0.0
1324, 0.0
1326, 0.0
1328, 0.0
1330, 0.0
1332, 0.0
1334, 0.0
1336, 0.0
1338, 0.0
1340, 0.0
1342, 0.0
1344, 0.0
1346, 0.0
1348, 0.0
1350, 0.0
1352, 0.0
1354, 0.0
1356, 0.0
1358, 0.0
1360, 0.0
1362, 0.0
1364, 0.0
1366, 0.0
1368, 0.0
1370, 0.0
1372, 0.0
1374, 0.0
1376, 0.0
1378, 0.0
1380, 0.0
1382, 0.0
1384, 0.0
1386, 0.0
1388, 0.0
1390, 0.0
1392, 0.0
1394, 0.0
1396, 0.0
1398, 0.0
1400, 0.0
1402, 0.0
1404, 0.0
1406, 0.0
1408, 0.0
1410, 0.0
1412, 0.0
1414, 0.0
1416, 0.0
1418, 0.0
1420, 0.0
1422, 0.0
1424, 0.0
1426, 0.0
1428, 0.0
1430, 0.0
1432, 0.0
1434, 0.0
1436, 0.0
1438, 0.0
1440, 0.0
1442, 0.0
1444, 0.0
1446, 0.0
1448, 0.0
1450, 0.0
1452, 0.0
1454, 0.0
1456, 0.0
1458, 0.0
1460, 0.0
1462, 0.0
1464, 0.0
1466, 0.0
1468, 0.0
1470, 0.0
1472, 0.0
1474, 0.0
1476, 0.0
1478, 0.0
1480, 0.0
1482, 0.0
1484, 0.0
1486, 0.0
1488, 0.0
1490, 0.0
1492, 0.0
1494, 0.0
1496, 0.0
1498, 0.0
1500, 0.0
1502, 0.0
1504, 0.0
1506, 0.0
1508, 0.0
1510, 0.0
1512, 0.0
1514, 0.0
1516, 0.0
1518, 0.0
1520, 0.0
1522, 0.0
1524, 0.0
1526, 0.0
1528, 0.0
1530, 0.0
1532, 0.0
1534, 0.0
1536, 0.0
1538, 0.0
1540, 0.0
1542, 0.0
1544, 0.0
1546, 0.0
1548, 0.0
1550, 0.0
1552, 0.0
1554, 0.0
1556, 0.0
1558, 0.0
1560, 0.0
1562, 0.0
1564, 0.0
1566, 0.0
1568, 0.0
1570, 0.0
1572, 0.0
1574, 0.0
1576, 0.0
1578, 0.0
1580, 0.0
1582, 0.0
1584, 0.0
1586, 0.0
1588, 0.0
1590, 0.0
1592, 0.0
1594, 0.0
1596, 0.0
1598, 0.0
1599, 0.0