File: raw data/Dataset_2/Ferronigerite2N1S/Ferronigerite2N1S__R120083__Raman__532__0__unoriented__Raman_Data_Processed__36512.txt
30, 0.0
32, 0.0
34, 0.0
36, 0.0
38, 0.0
40, 0.0
42, 0.0
44, 0.0
46, 0.0
48, 0.0
50, 0.0
52, 0.0
54, 0.0
56, 0.0
58, 0.0
60, 0.0
62, 0.0
64, 0.0
66, 0.0
68, 0.0
70, 0.0
72, 0.0
74, 0.0
76, 0.0
78, 0.0
80, 0.0
82, 0.0
84, 0.0
86, 0.0
88, 0.0
90, 0.0
92, 0.0
94, 0.0
96, 0.0
98, 0.0
100, 0.0
102, 0.0
104, 0.0
106, 0.0
108, 0.0
110, 0.0
112, 0.0
114, 0.0
116, 0.0
118, 0.0
120, 0.0
122, 0.0
124, 0.0
126, 0.0
128, 0.0
130, 0.0
132, 0.0
134, 0.0
136, 0.0
138, 0.0
140, 0.0
142, 0.0
144, 0.0
146, 0.0
148, 0.0
150, 0.0
152, 0.0
154, 0.0
156, 0.0
158, 0.0
160, 0.0
162, 0.0
164, 0.0
166, 0.0
168, 0.0
170, 0.0
172, 0.0
174, 0.0
176, 0.0
178, 0.0
180, 0.0
182, 0.0
184, 0.0
186, 0.0
188, 0.0
190, 0.0
192, 0.0
194, 0.0
196, 0.0
198, 0.0
200, 0.0
202.0, 0.00109306
204.0, 0.0125099
206.0, 0.0106921
208.0, 0.0253008
210.0, 0.0330838
212.0, 0.0298142
214.0, 0.0268679
216.0, 0.0226075
218.0, 0.0227396
220.0, 0.00680399
222.0, 0.00210414
224.0, 0.010004
226.0, 0.00322479
228.0, 0.00243737
230.0, 0.0125819
232.0, 0.0109846
234.0, 0.011504
236.0, 0.0112388
238.0, 0.0063673
240.0, 0.0144321
242.0, 0.00528578
244.0, 0.00619954
246.0, 0.00401727
248.0, 0.0091133
250.0, 0.00364802
252.0, 0.0312656
254.0, 0.0429065
256.0, 0.0609103
258.0, 0.0853879
260.0, 0.0884319
262.0, 0.127157
264.0, 0.150668
266.0, 0.169641
268.0, 0.181067
270.0, 0.173168
272.0, 0.154116
274.0, 0.127129
276.0, 0.0944686
278.0, 0.0699892
280.0, 0.0453696
282.0, 0.0465758
284.0, 0.0262914
286.0, 0.0214617
288.0, 0.0162395
290.0, 0.00206296
292.0, 0.00710939
294.0, 0.0159528
296.0, 0.00703646
298.0, 0.00555891
300.0, 0.013721
302.0, 0.0049657
304.0, 0.0110849
306.0, 0.0169755
308.0, 0.0205071
310.0, 0.0194601
312.0, 0.0112133
314.0, 0.016507
316.0, 0.0159077
318.0, 0.0218942
320.0, 0.037859
322.0, 0.0435327
324.0, 0.0534189
326.0, 0.068165
328.0, 0.074596
330.0, 0.0808076
332.0, 0.0932264
334.0, 0.0996895
336.0, 0.0853501
338.0, 0.0847922
340.0, 0.0703373
342.0, 0.0690402
344.0, 0.0669911
346.0, 0.040441
348.0, 0.0424467
350.0, 0.0347694
352.0, 0.0426309
354.0, 0.034515
356.0, 0.032876
358.0, 0.0229934
360.0, 0.0234393
362.0, 0.0238369
364.0, 0.0315737
366.0, 0.0203223
368.0, 0.0210589
370.0, 0.0104219
372.0, 0.0144758
374.0, 0.0109197
376.0, 0.0030146
378.0, 0.00464805
380.0, 7.75677e-05
382.0, 0.0155777
384.0, 0.0207004
386.0, 0.0121572
388.0, 0.00828128
390.0, 0.0089725
392.0, 0.00576279
394.0, 0.00590797
396.0, 0.00973648
398.0, 0.0140755
400.0, 0.020203
402.0, 0.0289886
404.0, 0.0352055
406.0, 0.0485329
408.0, 0.0554925
410.0, 0.0768692
412.0, 0.0805864
414.0, 0.0865491
416.0, 0.0889347
418.0, 0.102418
420.0, 0.100986
422.0, 0.10577
424.0, 0.115021
426.0, 0.122276
428.0, 0.137664
430.0, 0.139699
432.0, 0.146223
434.0, 0.162976
436.0, 0.166437
438.0, 0.174105
440.0, 0.192858
442.0, 0.204223
444.0, 0.232004
446.0, 0.256426
448.0, 0.294924
450.0, 0.338185
452.0, 0.394641
454.0, 0.46252
456.0, 0.541029
458.0, 0.628144
460.0, 0.72652
462.0, 0.836247
464.0, 0.932179
466.0, 0.994457
468.0, 0.986548
470.0, 0.956712
472.0, 0.874647
474.0, 0.802204
476.0, 0.754382
478.0, 0.732524
480.0, 0.724284
482.0, 0.749544
484.0, 0.808202
486.0, 0.871758
488.0, 0.938917
490.0, 0.99631
492.0, 0.986586
494.0, 0.896523
496.0, 0.735403
498.0, 0.548837
500.0, 0.397473
502.0, 0.276252
504.0, 0.228162
506.0, 0.156496
508.0, 0.0987649
510.0, 0.072635
512.0, 0.052107
514.0, 0.0356939
516.0, 0.0390801
518.0, 0.0273325
520.0, 0.0132129
522.0, 0.0224084
524.0, 0.0327482
526.0, 0.0334597
528.0, 0.036817
530.0, 0.0341014
532.0, 0.0364003
534.0, 0.0505114
536.0, 0.0509328
538.0, 0.0460894
540.0, 0.0567829
542.0, 0.0586884
544.0, 0.0531978
546.0, 0.0591674
548.0, 0.0633194
550.0, 0.0608416
552.0, 0.0558837
554.0, 0.0471053
556.0, 0.0307514
558.0, 0.0239136
560.0, 0.0130342
562.0, 0.018383
564.0, 0.000457712
566.0, 0.00749187
568.0, 0.0135293
570.0, 0.00298002
572.0, 0.0202686
574.0, 0.00644962
576.0, 0.00126731
578.0, 0.00728366
580.0, 0.0187258
582.0, 0.0300508
584.0, 0.041
586.0, 0.0484078
588.0, 0.0486551
590.0, 0.0592775
592.0, 0.0363268
594.0, 0.015641
596.0, 0.0101222
598.0, 0.0030482
600.0, 0.00719056
602.0, 0.0163501
604.0, 0.0166622
606.0, 0.00655264
608.0, 0.000453769
610.0, 0.00193931
612.0, 0.0017806
614.0, 0.00293706
616.0, 0.00196524
618.0, 0.01034
620.0, 0.00673832
622.0, 0.0102363
624.0, 0.0114347
626.0, 0.00363055
628.0, 0.00452089
630.0, 0.00691548
632.0, 0.00271968
634.0, 0.00802015
636.0, 0.0121566
638.0, 0.019478
640.0, 0.0265697
642.0, 0.0322339
644.0, 0.0330018
646.0, 0.0402263
648.0, 0.0298802
650.0, 0.0412376
652.0, 0.0315583
654.0, 0.0452073
656.0, 0.049682
658.0, 0.0479238
660.0, 0.0497432
662.0, 0.0599991
664.0, 0.0546438
666.0, 0.0715799
668.0, 0.077654
670.0, 0.110059
672.0, 0.126318
674.0, 0.138711
676.0, 0.158151
678.0, 0.170142
680.0, 0.1895
682.0, 0.189657
684.0, 0.20119
686.0, 0.200538
688.0, 0.191846
690.0, 0.192777
692.0, 0.18188
694.0, 0.201177
696.0, 0.200162
698.0, 0.206383
700.0, 0.209456
702.0, 0.201502
704.0, 0.19046
706.0, 0.203361
708.0, 0.213443
710.0, 0.202752
712.0, 0.2108
714.0, 0.200702
716.0, 0.193424
718.0, 0.175265
720.0, 0.171156
722.0, 0.167683
724.0, 0.16195
726.0, 0.156435
728.0, 0.155236
730.0, 0.137886
732.0, 0.122746
734.0, 0.0987202
736.0, 0.0806635
738.0, 0.0663064
740.0, 0.0663809
742.0, 0.0608698
744.0, 0.0694065
746.0, 0.0901562
748.0, 0.11691
750.0, 0.146424
752.0, 0.205214
754.0, 0.241023
756.0, 0.304572
758.0, 0.349788
760.0, 0.363775
762.0, 0.370384
764.0, 0.359853
766.0, 0.314808
768.0, 0.259286
770.0, 0.188094
772.0, 0.129486
774.0, 0.101504
776.0, 0.0396065
778.0, 0.0246078
780.0, 0.00907037
782.0, 0.0188725
784.0, 0.018436
786.0, 0.0172821
788.0, 0.0106448
790.0, 0.00672791
792.0, 0.00176634
794.0, 0.0261827
796.0, 0.0306222
798.0, 0.0505567
800.0, 0.0553797
802.0, 0.0736442
804.0, 0.084056
806.0, 0.0930154
808.0, 0.104094
810.0, 0.113863
812.0, 0.108557
814.0, 0.118532
816.0, 0.132855
818.0, 0.125642
820.0, 0.136602
822.0, 0.157292
824.0, 0.148706
826.0, 0.146147
828.0, 0.163378
830.0, 0.156908
832.0, 0.167789
834.0, 0.176342
836.0, 0.16239
838.0, 0.171078
840.0, 0.170215
842.0, 0.176313
844.0, 0.191005
846.0, 0.215538
848.0, 0.270701
850.0, 0.286905
852.0, 0.345331
854.0, 0.406606
856.0, 0.452552
858.0, 0.506539
860.0, 0.544504
862.0, 0.556787
864.0, 0.549429
866.0, 0.517964
868.0, 0.468269
870.0, 0.421212
872.0, 0.362603
874.0, 0.310567
876.0, 0.268861
878.0, 0.228944
880.0, 0.198529
882.0, 0.158404
884.0, 0.137749
886.0, 0.116722
888.0, 0.0901979
890.0, 0.0754888
892.0, 0.0551173
894.0, 0.0477755
896.0, 0.0390433
898.0, 0.0238649
900.0, 0.0114889
902.0, 0.00894844
904.0, 0.00433924
906.0, 0.00268834
908.0, 0.00515674
910.0, 0.00182185
912.0, 0.0122411
914.0, 0.0107811
916.0, 0.0062523
918.0, 0.00343538
920.0, 0.00501365
922.0, 0.0077067
924.0, 0.00376926
926.0, 0.00751835
928.0, 0.0207412
930.0, 0.013249
932.0, 0.0182742
934.0, 0.0167877
936.0, 0.0165259
938.0, 0.0282989
940.0, 0.0369267
942.0, 0.0463976
944.0, 0.0542769
946.0, 0.0550562
948.0, 0.0650338
950.0, 0.0814368
952.0, 0.0991066
954.0, 0.110247
956.0, 0.120659
958.0, 0.13925
960.0, 0.158241
962.0, 0.16896
964.0, 0.178378
966.0, 0.194258
968.0, 0.19225
970.0, 0.199084
972.0, 0.199736
974.0, 0.183699
976.0, 0.169034
978.0, 0.164028
980.0, 0.154145
982.0, 0.144333
984.0, 0.133523
986.0, 0.111707
988.0, 0.0958542
990.0, 0.0797328
992.0, 0.0671463
994.0, 0.0557885
996.0, 0.0382071
998.0, 0.0258044
1000.0, 0.0212642
1002.0, 0.0142006
1004.0, 0.0158754
1006.0, 0.0160985
1008.0, 0.00847898
1010.0, 0.0102189
1012.0, 0.01057
1014.0, 0.00913418
1016.0, 0.0111286
1018.0, 0.0112125
1020.0, 0.00180922
1022.0, 0.0058455
1024.0, 0.00318289
1026.0, 0.00280034
1028.0, 0.00116364
1030.0, 0.00278749
1032.0, 0.00416083
1034.0, 0.00205312
1036.0, 0.0121737
1038.0, 0.00812265
1040.0, 0.00384815
1042.0, 0.00497459
1044.0, 0.000699159
1046.0, 0.00412266
1048.0, 0.000765437
1050.0, 0.010681
1052.0, 0.00484717
1054.0, 0.0111893
1056.0, 0.00541226
1058.0, 0.0154284
1060.0, 0.00398299
1062.0, 0.00498501
1064.0, 0.00986559
1066.0, 0.0114111
1068.0, 0.012834
1070.0, 0.0110072
1072.0, 0.00437135
1074.0, 0.012813
1076.0, 0.00568763
1078.0, 0.00753897
1080.0, 0.00923726
1082.0, 0.000906543
1084.0, 0.000752283
1086.0, 0.000430755
1088.0, 0.000769645
1090.0, 0.00668466
1092.0, 0.00285802
1094.0, 0.00457252
1096.0, 0.00508636
1098.0, 0.00486806
1100.0, 0.0035496
1102.0, 0.00321388
1104.0, 0.00279106
1106.0, 0.00233941
1108.0, 0.00923277
1110.0, 0.0118568
1112.0, 0.00129951
1114.0, 0.00620186
1116.0, 0.0076344
1118.0, 0.00573765
1120.0, 0.00946013
1122.0, 0.00457591
1124.0, 0.00312835
1126.0, 0.00822988
1128.0, 0.000184615
1130.0, 0.015018
1132.0, 0.0039751
1134.0, 0.0020216
1136.0, 0.00343935
1138.0, 0.00436622
1140.0, 0.00217078
1142.0, 0.0149664
1144.0, 0.0088661
1146.0, 0.00810047
1148.0, 0.00403188
1150.0, 0.00932401
1152.0, 0.00541581
1154.0, 0.0018435
1156.0, 0.00244154
1158.0, 0.00807818
1160.0, 0.00112052
1162.0, 0.00494922
1164.0, 0.00850699
1166.0, 0.00490726
1168.0, 0.0124718
1170.0, 0.0126879
1172.0, 0.00672656
1174.0, 0.0115144
1176.0, 0.00796739
1178.0, 0.0047259
1180.0, 0.0131267
1182.0, 0.0055604
1184.0, 0.0105834
1186.0, 0.0101218
1188.0, 0.0219919
1190.0, 0.0051534
1192.0, 0.0104483
1194.0, 0.00900744
1196.0, 0.011168
1198.0, 0.00630633
1200.0, 0.0151547
1202.0, 0.00693532
1204.0, 0.0116337
1206.0, 0.00813991
1208.0, 0.0178216
1210.0, 0.00253361
1212.0, 0.015136
1214.0, 0.00804922
1216.0, 0.0117893
1218.0, 0.0166268
1220.0, 0.00957805
1222.0, 0.00896062
1224.0, 0.00812237
1226.0, 0.0143641
1228.0, 0.0178026
1230.0, 0.0124211
1232.0, 0.00624796
1234.0, 0.00962564
1236.0, 0.00170408
1238.0, 0.00693713
1240.0, 0.00328905
1242.0, 0.00383263
1244.0, 0.00262066
1246.0, 0.00351532
1248.0, 0.0125048
1250.0, 0.00465034
1252.0, 0.0048599
1254.0, 0.00783398
1256.0, 0.00165098
1258.0, 0.0118583
1260.0, 0.0196269
1262.0, 0.0113748
1264.0, 0.0124835
1266.0, 0.0103494
1268.0, 0.0105761
1270.0, 0.00993411
1272.0, 0.0158335
1274.0, 0.0149084
1276.0, 0.000881761
1278.0, 0.00868956
1280.0, 0.00925784
1282.0, 0.00447179
1284.0, 0.00466148
1286.0, 0.00536451
1288.0, 0.00295862
1290.0, 0.00829506
1292.0, 0.0104352
1294.0, 0.00920507
1296.0, 0.00492977
1298.0, 0.00981596
1300.0, 0.00198218
1302.0, 0.00519666
1304, 0.0
1306, 0.0
1308, 0.0
1310, 0.0
1312, 0.0
1314, 0.0
1316, 0.0
1318, 0.0
1320, 0.0
1322, 0.0
1324, 0.0
1326, 0.0
1328, 0.0
1330, 0.0
1332, 0.0
1334, 0.0
1336, 0.0
1338, 0.0
1340, 0.0
1342, 0.0
1344, 0.0
1346, 0.0
1348, 0.0
1350, 0.0
1352, 0.0
1354, 0.0
1356, 0.0
1358, 0.0
1360, 0.0
1362, 0.0
1364, 0.0
1366, 0.0
1368, 0.0
1370, 0.0
1372, 0.0
1374, 0.0
1376, 0.0
1378, 0.0
1380, 0.0
1382, 0.0
1384, 0.0
1386, 0.0
1388, 0.0
1390, 0.0
1392, 0.0
1394, 0.0
1396, 0.0
1398, 0.0
1400, 0.0
1402, 0.0
1404, 0.0
1406, 0.0
1408, 0.0
1410, 0.0
1412, 0.0
1414, 0.0
1416, 0.0
1418, 0.0
1420, 0.0
1422, 0.0
1424, 0.0
1426, 0.0
1428, 0.0
1430, 0.0
1432, 0.0
1434, 0.0
1436, 0.0
1438, 0.0
1440, 0.0
1442, 0.0
1444, 0.0
1446, 0.0
1448, 0.0
1450, 0.0
1452, 0.0
1454, 0.0
1456, 0.0
1458, 0.0
1460, 0.0
1462, 0.0
1464, 0.0
1466, 0.0
1468, 0.0
1470, 0.0
1472, 0.0
1474, 0.0
1476, 0.0
1478, 0.0
1480, 0.0
1482, 0.0
1484, 0.0
1486, 0.0
1488, 0.0
1490, 0.0
1492, 0.0
1494, 0.0
1496, 0.0
1498, 0.0
1500, 0.0
1502, 0.0
1504, 0.0
1506, 0.0
1508, 0.0
1510, 0.0
1512, 0.0
1514, 0.0
1516, 0.0
1518, 0.0
1520, 0.0
1522, 0.0
1524, 0.0
1526, 0.0
1528, 0.0
1530, 0.0
1532, 0.0
1534, 0.0
1536, 0.0
1538, 0.0
1540, 0.0
1542, 0.0
1544, 0.0
1546, 0.0
1548, 0.0
1550, 0.0
1552, 0.0
1554, 0.0
1556, 0.0
1558, 0.0
1560, 0.0
1562, 0.0
1564, 0.0
1566, 0.0
1568, 0.0
1570, 0.0
1572, 0.0
1574, 0.0
1576, 0.0
1578, 0.0
1580, 0.0
1582, 0.0
1584, 0.0
1586, 0.0
1588, 0.0
1590, 0.0
1592, 0.0
1594, 0.0
1596, 0.0
1598, 0.0
1599, 0.0