File: raw data/Dataset_2/GlassYb/GlassYb__R110086__Raman__532__0__unoriented__Raman_Data_Processed__35513.txt
30, 0.0
32, 0.0
34, 0.0
36, 0.0
38, 0.0
40, 0.0
42, 0.0
44, 0.0
46, 0.0
48, 0.0
50, 0.0
52, 0.0
54, 0.0
56, 0.0
58, 0.0
60, 0.0
62, 0.0
64, 0.0
66, 0.0
68, 0.0
70, 0.0
72, 0.0
74, 0.0
76, 0.0
78, 0.0
80, 0.0
82, 0.0
84, 0.0
86, 0.0
88, 0.0
90, 0.0
92, 0.0
94, 0.0
96, 0.0
98, 0.0
100, 0.0
102, 0.0
104, 0.0
106, 0.0
108, 0.0
110, 0.0
112, 0.0
114, 0.0
116, 0.0
118, 0.0
120, 0.0
122, 0.0
124, 0.0
126, 0.0
128, 0.0
130, 0.0
132, 0.0
134, 0.0
136, 0.0
138, 0.0
140, 0.0
142, 0.0
144, 0.0
146, 0.0
148, 0.0
150, 0.0
152, 0.0
154, 0.0
156, 0.0
158, 0.0
160, 0.0
162, 0.0
164, 0.0
166, 0.0
168, 0.0
170, 0.0
172, 0.0
174, 0.0
176, 0.0
178, 0.0
180, 0.0
182, 0.0
184, 0.0
186, 0.0
188, 0.0
190, 0.0
192, 0.0
194, 0.0
196, 0.0
198.0, 0.988407
200.0, 0.997363
202.0, 0.993205
204.0, 0.994331
206.0, 0.992554
208.0, 0.987851
210.0, 0.98002
212.0, 0.976163
214.0, 0.982513
216.0, 0.976549
218.0, 0.973315
220.0, 0.972354
222.0, 0.970324
224.0, 0.968792
226.0, 0.955832
228.0, 0.971441
230.0, 0.956595
232.0, 0.958389
234.0, 0.959299
236.0, 0.958155
238.0, 0.956889
240.0, 0.949548
242.0, 0.947199
244.0, 0.944756
246.0, 0.933162
248.0, 0.941544
250.0, 0.94319
252.0, 0.931961
254.0, 0.926795
256.0, 0.933664
258.0, 0.929251
260.0, 0.927203
262.0, 0.923987
264.0, 0.922484
266.0, 0.924705
268.0, 0.917665
270.0, 0.924401
272.0, 0.918387
274.0, 0.920565
276.0, 0.917609
278.0, 0.921985
280.0, 0.919286
282.0, 0.925063
284.0, 0.902216
286.0, 0.911356
288.0, 0.906865
290.0, 0.906319
292.0, 0.906094
294.0, 0.910137
296.0, 0.907058
298.0, 0.920952
300.0, 0.913382
302.0, 0.921339
304.0, 0.91997
306.0, 0.911054
308.0, 0.914206
310.0, 0.915202
312.0, 0.916956
314.0, 0.915038
316.0, 0.927359
318.0, 0.920452
320.0, 0.920089
322.0, 0.915561
324.0, 0.917157
326.0, 0.919114
328.0, 0.91927
330.0, 0.919057
332.0, 0.922129
334.0, 0.925393
336.0, 0.931479
338.0, 0.924029
340.0, 0.929093
342.0, 0.92908
344.0, 0.923807
346.0, 0.921977
348.0, 0.922335
350.0, 0.922195
352.0, 0.923138
354.0, 0.929316
356.0, 0.933318
358.0, 0.933938
360.0, 0.932191
362.0, 0.927869
364.0, 0.932113
366.0, 0.935092
368.0, 0.924458
370.0, 0.923756
372.0, 0.927262
374.0, 0.935054
376.0, 0.927859
378.0, 0.924662
380.0, 0.926089
382.0, 0.92229
384.0, 0.931242
386.0, 0.92725
388.0, 0.922566
390.0, 0.925634
392.0, 0.923103
394.0, 0.919774
396.0, 0.925531
398.0, 0.930485
400.0, 0.928834
402.0, 0.914121
404.0, 0.926596
406.0, 0.933983
408.0, 0.930442
410.0, 0.928852
412.0, 0.933249
414.0, 0.929163
416.0, 0.9356
418.0, 0.921846
420.0, 0.927786
422.0, 0.932995
424.0, 0.925797
426.0, 0.932752
428.0, 0.932398
430.0, 0.945562
432.0, 0.937925
434.0, 0.940298
436.0, 0.940009
438.0, 0.93848
440.0, 0.948011
442.0, 0.947847
444.0, 0.939719
446.0, 0.940921
448.0, 0.943619
450.0, 0.942062
452.0, 0.94587
454.0, 0.95012
456.0, 0.943328
458.0, 0.951307
460.0, 0.952738
462.0, 0.959454
464.0, 0.952217
466.0, 0.957594
468.0, 0.954546
470.0, 0.946003
472.0, 0.946459
474.0, 0.948728
476.0, 0.953718
478.0, 0.948258
480.0, 0.947687
482.0, 0.950724
484.0, 0.956709
486.0, 0.94895
488.0, 0.95339
490.0, 0.945199
492.0, 0.946793
494.0, 0.951361
496.0, 0.950323
498.0, 0.953008
500.0, 0.940189
502.0, 0.94716
504.0, 0.935488
506.0, 0.937936
508.0, 0.934012
510.0, 0.934643
512.0, 0.931993
514.0, 0.927232
516.0, 0.920391
518.0, 0.917289
520.0, 0.916179
522.0, 0.905139
524.0, 0.902547
526.0, 0.89891
528.0, 0.902272
530.0, 0.88162
532.0, 0.878236
534.0, 0.86822
536.0, 0.867197
538.0, 0.849527
540.0, 0.855976
542.0, 0.846695
544.0, 0.840966
546.0, 0.833969
548.0, 0.836414
550.0, 0.828573
552.0, 0.815796
554.0, 0.818259
556.0, 0.819274
558.0, 0.805911
560.0, 0.800467
562.0, 0.794624
564.0, 0.79262
566.0, 0.792295
568.0, 0.78102
570.0, 0.782049
572.0, 0.779516
574.0, 0.768739
576.0, 0.757631
578.0, 0.764069
580.0, 0.754658
582.0, 0.755719
584.0, 0.740067
586.0, 0.738291
588.0, 0.719432
590.0, 0.721876
592.0, 0.71655
594.0, 0.706261
596.0, 0.701363
598.0, 0.688507
600.0, 0.685755
602.0, 0.674173
604.0, 0.663135
606.0, 0.663082
608.0, 0.650705
610.0, 0.649405
612.0, 0.64304
614.0, 0.635092
616.0, 0.630653
618.0, 0.6265
620.0, 0.626004
622.0, 0.618126
624.0, 0.607603
626.0, 0.611275
628.0, 0.604124
630.0, 0.59363
632.0, 0.59758
634.0, 0.597302
636.0, 0.591237
638.0, 0.59067
640.0, 0.588689
642.0, 0.579737
644.0, 0.57772
646.0, 0.579001
648.0, 0.573128
650.0, 0.570019
652.0, 0.568717
654.0, 0.571954
656.0, 0.562799
658.0, 0.556889
660.0, 0.557641
662.0, 0.554115
664.0, 0.545448
666.0, 0.534699
668.0, 0.535736
670.0, 0.529864
672.0, 0.525991
674.0, 0.520871
676.0, 0.520234
678.0, 0.509358
680.0, 0.503597
682.0, 0.50652
684.0, 0.495726
686.0, 0.493636
688.0, 0.484255
690.0, 0.477169
692.0, 0.475861
694.0, 0.463357
696.0, 0.467535
698.0, 0.453404
700.0, 0.448228
702.0, 0.442162
704.0, 0.437752
706.0, 0.433027
708.0, 0.429137
710.0, 0.424638
712.0, 0.419951
714.0, 0.414775
716.0, 0.4085
718.0, 0.403422
720.0, 0.396083
722.0, 0.395388
724.0, 0.392976
726.0, 0.380549
728.0, 0.383055
730.0, 0.379483
732.0, 0.370255
734.0, 0.363989
736.0, 0.362251
738.0, 0.360023
740.0, 0.358342
742.0, 0.354376
744.0, 0.344181
746.0, 0.34178
748.0, 0.338515
750.0, 0.344296
752.0, 0.332074
754.0, 0.324357
756.0, 0.328627
758.0, 0.326882
760.0, 0.316822
762.0, 0.315914
764.0, 0.306003
766.0, 0.306635
768.0, 0.303861
770.0, 0.30434
772.0, 0.300162
774.0, 0.28691
776.0, 0.287466
778.0, 0.286028
780.0, 0.2751
782.0, 0.275756
784.0, 0.27382
786.0, 0.272425
788.0, 0.263537
790.0, 0.251308
792.0, 0.25101
794.0, 0.246674
796.0, 0.240928
798.0, 0.23696
800.0, 0.231654
802.0, 0.228667
804.0, 0.230824
806.0, 0.217339
808.0, 0.217914
810.0, 0.215676
812.0, 0.208503
814.0, 0.205668
816.0, 0.205622
818.0, 0.199484
820.0, 0.194677
822.0, 0.192593
824.0, 0.192095
826.0, 0.184803
828.0, 0.1911
830.0, 0.182121
832.0, 0.184706
834.0, 0.187061
836.0, 0.192987
838.0, 0.190852
840.0, 0.189727
842.0, 0.194748
844.0, 0.196213
846.0, 0.204842
848.0, 0.205887
850.0, 0.210069
852.0, 0.216007
854.0, 0.226049
856.0, 0.231273
858.0, 0.238899
860.0, 0.241804
862.0, 0.255796
864.0, 0.266435
866.0, 0.261801
868.0, 0.271582
870.0, 0.279182
872.0, 0.284717
874.0, 0.301637
876.0, 0.305024
878.0, 0.31181
880.0, 0.321565
882.0, 0.324879
884.0, 0.33134
886.0, 0.346
888.0, 0.349003
890.0, 0.361907
892.0, 0.367213
894.0, 0.376476
896.0, 0.381488
898.0, 0.392477
900.0, 0.398786
902.0, 0.409692
904.0, 0.410773
906.0, 0.420654
908.0, 0.43436
910.0, 0.439237
912.0, 0.443021
914.0, 0.445807
916.0, 0.466619
918.0, 0.467589
920.0, 0.474738
922.0, 0.479571
924.0, 0.495094
926.0, 0.500159
928.0, 0.503432
930.0, 0.508972
932.0, 0.515428
934.0, 0.517918
936.0, 0.523069
938.0, 0.529681
940.0, 0.529748
942.0, 0.540385
944.0, 0.539509
946.0, 0.539465
948.0, 0.553536
950.0, 0.549978
952.0, 0.553395
954.0, 0.568982
956.0, 0.567672
958.0, 0.563475
960.0, 0.570939
962.0, 0.56945
964.0, 0.576108
966.0, 0.584608
968.0, 0.586077
970.0, 0.583618
972.0, 0.592238
974.0, 0.589288
976.0, 0.59344
978.0, 0.596385
980.0, 0.609709
982.0, 0.597836
984.0, 0.600109
986.0, 0.600262
988.0, 0.602808
990.0, 0.610178
992.0, 0.611317
994.0, 0.612535
996.0, 0.606438
998.0, 0.607515
1000.0, 0.604532
1002.0, 0.607543
1004.0, 0.609801
1006.0, 0.608719
1008.0, 0.619334
1010.0, 0.611383
1012.0, 0.605067
1014.0, 0.605837
1016.0, 0.603983
1018.0, 0.602428
1020.0, 0.603551
1022.0, 0.598517
1024.0, 0.595337
1026.0, 0.591703
1028.0, 0.581639
1030.0, 0.578196
1032.0, 0.571602
1034.0, 0.566433
1036.0, 0.569827
1038.0, 0.561292
1040.0, 0.548185
1042.0, 0.541547
1044.0, 0.526075
1046.0, 0.529752
1048.0, 0.511962
1050.0, 0.510487
1052.0, 0.500472
1054.0, 0.494097
1056.0, 0.483375
1058.0, 0.475161
1060.0, 0.463803
1062.0, 0.453723
1064.0, 0.440469
1066.0, 0.427334
1068.0, 0.420116
1070.0, 0.411915
1072.0, 0.395808
1074.0, 0.388843
1076.0, 0.374076
1078.0, 0.36259
1080.0, 0.352154
1082.0, 0.345745
1084.0, 0.338646
1086.0, 0.322409
1088.0, 0.311289
1090.0, 0.302759
1092.0, 0.292798
1094.0, 0.284151
1096.0, 0.274238
1098.0, 0.265346
1100.0, 0.256983
1102.0, 0.248617
1104.0, 0.238124
1106.0, 0.229862
1108.0, 0.222097
1110.0, 0.216289
1112.0, 0.206135
1114.0, 0.200547
1116.0, 0.193466
1118.0, 0.185146
1120.0, 0.182777
1122.0, 0.167921
1124.0, 0.162195
1126.0, 0.160666
1128.0, 0.153006
1130.0, 0.155412
1132.0, 0.147802
1134.0, 0.134078
1136.0, 0.136993
1138.0, 0.128303
1140.0, 0.121138
1142.0, 0.119852
1144.0, 0.119289
1146.0, 0.111041
1148.0, 0.106573
1150.0, 0.104837
1152.0, 0.101685
1154.0, 0.0993952
1156.0, 0.0868413
1158.0, 0.0886396
1160.0, 0.0810034
1162.0, 0.0796446
1164.0, 0.0812549
1166.0, 0.0789947
1168.0, 0.0768516
1170.0, 0.0704075
1172.0, 0.0686495
1174.0, 0.0657146
1176.0, 0.0653391
1178.0, 0.0588436
1180.0, 0.0562318
1182.0, 0.0528477
1184.0, 0.0546661
1186.0, 0.052162
1188.0, 0.0456019
1190.0, 0.0471505
1192.0, 0.0429424
1194.0, 0.0471662
1196.0, 0.0363561
1198.0, 0.0362896
1200.0, 0.0364913
1202.0, 0.0306444
1204.0, 0.0275233
1206.0, 0.0282686
1208.0, 0.0310455
1210.0, 0.0275619
1212.0, 0.0259318
1214.0, 0.0259541
1216.0, 0.0234363
1218.0, 0.0263214
1220.0, 0.0201227
1222.0, 0.0289829
1224.0, 0.0230504
1226.0, 0.021732
1228.0, 0.0186814
1230.0, 0.0203507
1232.0, 0.010444
1234.0, 0.0171896
1236.0, 0.0165816
1238.0, 0.0142801
1240.0, 0.0101269
1242.0, 0.0144156
1244.0, 0.00905463
1246.0, 0.0167316
1248.0, 0.00750684
1250.0, 0.00959171
1252.0, 0.0124708
1254.0, 0.0137701
1256.0, 0.00895211
1258.0, 0.0121398
1260.0, 0.00654092
1262.0, 0.0135835
1264.0, 0.0100771
1266.0, 0.00747135
1268.0, 0.0136672
1270.0, 0.00729315
1272.0, 0.00592279
1274.0, 0.00946898
1276.0, 0.00942001
1278.0, 0.00480472
1280.0, 0.012187
1282.0, 0.00670473
1284.0, 0.00452259
1286.0, 0.0127978
1288.0, 0.00892546
1290.0, 0.00960295
1292.0, 0.0177259
1294.0, 0.0087823
1296.0, 0.00714443
1298.0, 0.00854905
1300.0, 0.00122182
1302.0, 0.00980641
1304, 0.0
1306, 0.0
1308, 0.0
1310, 0.0
1312, 0.0
1314, 0.0
1316, 0.0
1318, 0.0
1320, 0.0
1322, 0.0
1324, 0.0
1326, 0.0
1328, 0.0
1330, 0.0
1332, 0.0
1334, 0.0
1336, 0.0
1338, 0.0
1340, 0.0
1342, 0.0
1344, 0.0
1346, 0.0
1348, 0.0
1350, 0.0
1352, 0.0
1354, 0.0
1356, 0.0
1358, 0.0
1360, 0.0
1362, 0.0
1364, 0.0
1366, 0.0
1368, 0.0
1370, 0.0
1372, 0.0
1374, 0.0
1376, 0.0
1378, 0.0
1380, 0.0
1382, 0.0
1384, 0.0
1386, 0.0
1388, 0.0
1390, 0.0
1392, 0.0
1394, 0.0
1396, 0.0
1398, 0.0
1400, 0.0
1402, 0.0
1404, 0.0
1406, 0.0
1408, 0.0
1410, 0.0
1412, 0.0
1414, 0.0
1416, 0.0
1418, 0.0
1420, 0.0
1422, 0.0
1424, 0.0
1426, 0.0
1428, 0.0
1430, 0.0
1432, 0.0
1434, 0.0
1436, 0.0
1438, 0.0
1440, 0.0
1442, 0.0
1444, 0.0
1446, 0.0
1448, 0.0
1450, 0.0
1452, 0.0
1454, 0.0
1456, 0.0
1458, 0.0
1460, 0.0
1462, 0.0
1464, 0.0
1466, 0.0
1468, 0.0
1470, 0.0
1472, 0.0
1474, 0.0
1476, 0.0
1478, 0.0
1480, 0.0
1482, 0.0
1484, 0.0
1486, 0.0
1488, 0.0
1490, 0.0
1492, 0.0
1494, 0.0
1496, 0.0
1498, 0.0
1500, 0.0
1502, 0.0
1504, 0.0
1506, 0.0
1508, 0.0
1510, 0.0
1512, 0.0
1514, 0.0
1516, 0.0
1518, 0.0
1520, 0.0
1522, 0.0
1524, 0.0
1526, 0.0
1528, 0.0
1530, 0.0
1532, 0.0
1534, 0.0
1536, 0.0
1538, 0.0
1540, 0.0
1542, 0.0
1544, 0.0
1546, 0.0
1548, 0.0
1550, 0.0
1552, 0.0
1554, 0.0
1556, 0.0
1558, 0.0
1560, 0.0
1562, 0.0
1564, 0.0
1566, 0.0
1568, 0.0
1570, 0.0
1572, 0.0
1574, 0.0
1576, 0.0
1578, 0.0
1580, 0.0
1582, 0.0
1584, 0.0
1586, 0.0
1588, 0.0
1590, 0.0
1592, 0.0
1594, 0.0
1596, 0.0
1598, 0.0
1599, 0.0