File: raw data/Dataset_2/GlassYb/GlassYb__R110086__Raman__780__0__unoriented__Raman_Data_Processed__35512.txt
30, 0.0
32, 0.0
34, 0.0
36, 0.0
38, 0.0
40, 0.0
42, 0.0
44, 0.0
46, 0.0
48, 0.0
50, 0.0
52, 0.0
54, 0.0
56, 0.0
58, 0.0
60, 0.0
62, 0.0
64, 0.0
66, 0.0
68, 0.0
70, 0.0
72, 0.0
74, 0.0
76, 0.0
78, 0.0
80, 0.0
82, 0.0
84, 0.0
86, 0.0
88, 0.0
90, 0.0
92, 0.0
94, 0.0
96, 0.0
98, 0.0
100, 0.0
102, 0.0
104, 0.0
106, 0.0
108, 0.0
110, 0.0
112, 0.0
114.0, 0.993069
116.0, 0.994188
118.0, 0.996137
120.0, 0.99173
122.0, 0.989097
124.0, 0.991081
126.0, 0.992253
128.0, 0.99034
130.0, 0.992907
132.0, 0.984679
134.0, 0.982465
136.0, 0.98592
138.0, 0.978052
140.0, 0.977371
142.0, 0.969672
144.0, 0.967298
146.0, 0.960483
148.0, 0.959482
150.0, 0.956894
152.0, 0.961345
154.0, 0.954619
156.0, 0.951905
158.0, 0.948968
160.0, 0.94351
162.0, 0.942195
164.0, 0.938844
166.0, 0.937146
168.0, 0.936689
170.0, 0.934796
172.0, 0.930392
174.0, 0.926672
176.0, 0.924898
178.0, 0.917095
180.0, 0.918314
182.0, 0.910657
184.0, 0.904194
186.0, 0.899559
188.0, 0.894134
190.0, 0.888801
192.0, 0.889425
194.0, 0.882073
196.0, 0.875776
198.0, 0.871993
200.0, 0.864139
202.0, 0.862853
204.0, 0.856402
206.0, 0.848714
208.0, 0.845264
210.0, 0.838205
212.0, 0.837025
214.0, 0.829545
216.0, 0.825429
218.0, 0.820115
220.0, 0.818295
222.0, 0.809356
224.0, 0.80566
226.0, 0.801544
228.0, 0.795837
230.0, 0.790395
232.0, 0.784102
234.0, 0.782583
236.0, 0.779551
238.0, 0.773624
240.0, 0.771321
242.0, 0.764748
244.0, 0.763337
246.0, 0.759206
248.0, 0.753807
250.0, 0.750368
252.0, 0.749193
254.0, 0.744982
256.0, 0.742222
258.0, 0.741466
260.0, 0.736457
262.0, 0.737395
264.0, 0.735501
266.0, 0.734929
268.0, 0.731711
270.0, 0.732909
272.0, 0.732365
274.0, 0.727911
276.0, 0.726454
278.0, 0.733328
280.0, 0.730819
282.0, 0.728654
284.0, 0.730135
286.0, 0.727492
288.0, 0.726966
290.0, 0.72974
292.0, 0.731509
294.0, 0.729038
296.0, 0.732502
298.0, 0.730584
300.0, 0.736673
302.0, 0.73735
304.0, 0.73726
306.0, 0.737625
308.0, 0.736166
310.0, 0.739462
312.0, 0.739164
314.0, 0.740966
316.0, 0.747097
318.0, 0.746316
320.0, 0.745691
322.0, 0.748045
324.0, 0.749453
326.0, 0.749265
328.0, 0.751416
330.0, 0.75144
332.0, 0.757572
334.0, 0.752255
336.0, 0.757405
338.0, 0.757867
340.0, 0.755554
342.0, 0.757517
344.0, 0.758588
346.0, 0.757263
348.0, 0.759831
350.0, 0.755214
352.0, 0.754058
354.0, 0.75359
356.0, 0.749899
358.0, 0.751056
360.0, 0.745813
362.0, 0.744757
364.0, 0.742638
366.0, 0.739195
368.0, 0.737845
370.0, 0.737545
372.0, 0.732659
374.0, 0.731373
376.0, 0.726477
378.0, 0.721861
380.0, 0.718202
382.0, 0.717933
384.0, 0.716409
386.0, 0.711008
388.0, 0.711644
390.0, 0.702519
392.0, 0.704575
394.0, 0.698332
396.0, 0.694153
398.0, 0.695859
400.0, 0.690714
402.0, 0.683516
404.0, 0.68177
406.0, 0.680636
408.0, 0.679603
410.0, 0.673444
412.0, 0.674702
414.0, 0.669859
416.0, 0.667584
418.0, 0.665474
420.0, 0.665897
422.0, 0.664911
424.0, 0.659432
426.0, 0.660357
428.0, 0.655849
430.0, 0.658733
432.0, 0.653062
434.0, 0.653603
436.0, 0.650926
438.0, 0.648787
440.0, 0.651913
442.0, 0.648797
444.0, 0.644021
446.0, 0.643228
448.0, 0.643995
450.0, 0.639036
452.0, 0.639402
454.0, 0.639157
456.0, 0.63572
458.0, 0.635372
460.0, 0.632797
462.0, 0.636926
464.0, 0.631788
466.0, 0.63146
468.0, 0.631016
470.0, 0.629224
472.0, 0.623308
474.0, 0.621642
476.0, 0.623528
478.0, 0.621171
480.0, 0.619414
482.0, 0.615429
484.0, 0.613444
486.0, 0.612206
488.0, 0.609896
490.0, 0.605477
492.0, 0.604903
494.0, 0.604026
496.0, 0.601374
498.0, 0.598763
500.0, 0.595293
502.0, 0.593512
504.0, 0.593154
506.0, 0.588208
508.0, 0.584333
510.0, 0.58015
512.0, 0.577499
514.0, 0.572357
516.0, 0.570371
518.0, 0.566773
520.0, 0.559393
522.0, 0.553104
524.0, 0.552093
526.0, 0.547854
528.0, 0.540552
530.0, 0.536499
532.0, 0.5294
534.0, 0.524138
536.0, 0.518504
538.0, 0.514626
540.0, 0.510823
542.0, 0.506142
544.0, 0.499941
546.0, 0.494311
548.0, 0.491065
550.0, 0.48757
552.0, 0.483621
554.0, 0.478784
556.0, 0.475365
558.0, 0.472544
560.0, 0.467992
562.0, 0.459878
564.0, 0.460731
566.0, 0.452794
568.0, 0.450626
570.0, 0.449499
572.0, 0.440265
574.0, 0.436161
576.0, 0.430509
578.0, 0.428038
580.0, 0.422037
582.0, 0.416873
584.0, 0.413428
586.0, 0.405427
588.0, 0.399376
590.0, 0.396799
592.0, 0.391057
594.0, 0.382765
596.0, 0.376538
598.0, 0.373026
600.0, 0.365976
602.0, 0.355947
604.0, 0.354703
606.0, 0.347196
608.0, 0.343674
610.0, 0.337497
612.0, 0.332422
614.0, 0.329774
616.0, 0.32221
618.0, 0.320339
620.0, 0.316517
622.0, 0.308726
624.0, 0.308295
626.0, 0.303317
628.0, 0.297054
630.0, 0.294825
632.0, 0.292532
634.0, 0.289095
636.0, 0.285928
638.0, 0.28349
640.0, 0.280808
642.0, 0.277362
644.0, 0.274424
646.0, 0.268676
648.0, 0.266466
650.0, 0.265246
652.0, 0.264722
654.0, 0.258492
656.0, 0.254139
658.0, 0.251229
660.0, 0.249595
662.0, 0.24506
664.0, 0.238863
666.0, 0.235404
668.0, 0.233677
670.0, 0.230406
672.0, 0.227524
674.0, 0.222427
676.0, 0.217345
678.0, 0.212818
680.0, 0.213148
682.0, 0.203507
684.0, 0.20325
686.0, 0.199139
688.0, 0.195305
690.0, 0.190968
692.0, 0.185448
694.0, 0.184667
696.0, 0.179606
698.0, 0.174425
700.0, 0.170736
702.0, 0.166313
704.0, 0.165677
706.0, 0.163546
708.0, 0.159515
710.0, 0.155039
712.0, 0.153369
714.0, 0.151252
716.0, 0.147912
718.0, 0.144343
720.0, 0.14203
722.0, 0.137942
724.0, 0.136302
726.0, 0.135578
728.0, 0.130914
730.0, 0.126658
732.0, 0.126831
734.0, 0.124487
736.0, 0.121855
738.0, 0.120814
740.0, 0.116752
742.0, 0.114452
744.0, 0.110454
746.0, 0.114439
748.0, 0.108587
750.0, 0.104957
752.0, 0.107221
754.0, 0.104499
756.0, 0.102221
758.0, 0.0998083
760.0, 0.0981352
762.0, 0.0972272
764.0, 0.0951262
766.0, 0.0932118
768.0, 0.0941159
770.0, 0.0891879
772.0, 0.0875882
774.0, 0.0850243
776.0, 0.0817557
778.0, 0.0822427
780.0, 0.0802402
782.0, 0.0808771
784.0, 0.0776331
786.0, 0.0732644
788.0, 0.0726392
790.0, 0.0691421
792.0, 0.0695794
794.0, 0.0664999
796.0, 0.0653074
798.0, 0.0625301
800.0, 0.0625299
802.0, 0.058682
804.0, 0.0584105
806.0, 0.056908
808.0, 0.0526811
810.0, 0.0534985
812.0, 0.0521885
814.0, 0.048667
816.0, 0.0489069
818.0, 0.0471186
820.0, 0.0460217
822.0, 0.0442292
824.0, 0.0452066
826.0, 0.0438234
828.0, 0.0439202
830.0, 0.0432915
832.0, 0.0460249
834.0, 0.0421125
836.0, 0.0452545
838.0, 0.0434952
840.0, 0.0482092
842.0, 0.0489235
844.0, 0.0508689
846.0, 0.0512446
848.0, 0.0541075
850.0, 0.0569155
852.0, 0.0608461
854.0, 0.061393
856.0, 0.0647773
858.0, 0.0710206
860.0, 0.0697321
862.0, 0.0730154
864.0, 0.0761928
866.0, 0.0772696
868.0, 0.0839279
870.0, 0.0853957
872.0, 0.0887562
874.0, 0.0937136
876.0, 0.0949558
878.0, 0.0979919
880.0, 0.102202
882.0, 0.10465
884.0, 0.107747
886.0, 0.109723
888.0, 0.114941
890.0, 0.115395
892.0, 0.120807
894.0, 0.122614
896.0, 0.124837
898.0, 0.12841
900.0, 0.132286
902.0, 0.135757
904.0, 0.137003
906.0, 0.139693
908.0, 0.142389
910.0, 0.146489
912.0, 0.14835
914.0, 0.153986
916.0, 0.156568
918.0, 0.156947
920.0, 0.159245
922.0, 0.163936
924.0, 0.165101
926.0, 0.166539
928.0, 0.170702
930.0, 0.172114
932.0, 0.173759
934.0, 0.177203
936.0, 0.178566
938.0, 0.177906
940.0, 0.183795
942.0, 0.180769
944.0, 0.183918
946.0, 0.187741
948.0, 0.190865
950.0, 0.189387
952.0, 0.193059
954.0, 0.192415
956.0, 0.19436
958.0, 0.196224
960.0, 0.196809
962.0, 0.198188
964.0, 0.199992
966.0, 0.199568
968.0, 0.200212
970.0, 0.201073
972.0, 0.206143
974.0, 0.20402
976.0, 0.206303
978.0, 0.20589
980.0, 0.208257
982.0, 0.208116
984.0, 0.211594
986.0, 0.209171
988.0, 0.209
990.0, 0.209497
992.0, 0.21327
994.0, 0.209156
996.0, 0.212757
998.0, 0.213518
1000.0, 0.211238
1002.0, 0.212092
1004.0, 0.214451
1006.0, 0.20963
1008.0, 0.2115
1010.0, 0.212013
1012.0, 0.211623
1014.0, 0.209629
1016.0, 0.209219
1018.0, 0.20775
1020.0, 0.20547
1022.0, 0.206589
1024.0, 0.200723
1026.0, 0.204231
1028.0, 0.202606
1030.0, 0.197835
1032.0, 0.19515
1034.0, 0.190432
1036.0, 0.193355
1038.0, 0.187981
1040.0, 0.184501
1042.0, 0.182588
1044.0, 0.180859
1046.0, 0.177991
1048.0, 0.175122
1050.0, 0.169678
1052.0, 0.164078
1054.0, 0.163008
1056.0, 0.156164
1058.0, 0.15619
1060.0, 0.148339
1062.0, 0.143826
1064.0, 0.142693
1066.0, 0.138008
1068.0, 0.132248
1070.0, 0.129723
1072.0, 0.125777
1074.0, 0.122669
1076.0, 0.114251
1078.0, 0.111477
1080.0, 0.107531
1082.0, 0.10461
1084.0, 0.0998892
1086.0, 0.0955189
1088.0, 0.0929784
1090.0, 0.0863428
1092.0, 0.0809104
1094.0, 0.0790362
1096.0, 0.0743674
1098.0, 0.0733853
1100.0, 0.0675699
1102.0, 0.0642174
1104.0, 0.061801
1106.0, 0.0579562
1108.0, 0.0584387
1110.0, 0.0512979
1112.0, 0.0505768
1114.0, 0.0462815
1116.0, 0.0449875
1118.0, 0.042897
1120.0, 0.0427137
1122.0, 0.0376641
1124.0, 0.0375592
1126.0, 0.0334871
1128.0, 0.0311392
1130.0, 0.0312328
1132.0, 0.0308648
1134.0, 0.0278118
1136.0, 0.0253603
1138.0, 0.024085
1140.0, 0.0236284
1142.0, 0.0216124
1144.0, 0.0199378
1146.0, 0.0164727
1148.0, 0.0158236
1150.0, 0.0158844
1152.0, 0.0147582
1154.0, 0.0160942
1156.0, 0.0131561
1158.0, 0.011457
1160.0, 0.012388
1162.0, 0.0123262
1164.0, 0.00995659
1166.0, 0.00951891
1168.0, 0.00954669
1170.0, 0.00918754
1172.0, 0.00899879
1174.0, 0.00591501
1176.0, 0.00637082
1178.0, 0.00805174
1180.0, 0.0076087
1182.0, 0.00377232
1184.0, 0.00511846
1186.0, 0.00399363
1188.0, 0.00256867
1190.0, 0.000210606
1192.0, 0.00362561
1194.0, 0.00323498
1196.0, 0.00330887
1198.0, 0.00287994
1200.0, 0.00489808
1202.0, 0.00486766
1204.0, 0.00435027
1206.0, 0.00430074
1208.0, 0.00480625
1210.0, 0.00519419
1212.0, 0.00469999
1214.0, 0.00361496
1216.0, 0.00219838
1218.0, 0.00442406
1220.0, 0.00473106
1222.0, 0.00394018
1224.0, 0.00467647
1226.0, 0.00507741
1228.0, 0.00252669
1230.0, 0.0078899
1232.0, 0.00923485
1234.0, 0.00529183
1236.0, 0.00832306
1238.0, 0.00978564
1240.0, 0.00774753
1242.0, 0.00786269
1244.0, 0.00747075
1246.0, 0.0104015
1248.0, 0.00905288
1250.0, 0.0120549
1252.0, 0.0114517
1254.0, 0.0109432
1256.0, 0.0119065
1258.0, 0.0148436
1260.0, 0.015651
1262.0, 0.0148488
1264.0, 0.0188587
1266.0, 0.0177538
1268.0, 0.01847
1270.0, 0.0192217
1272.0, 0.0229492
1274.0, 0.0256969
1276.0, 0.0236001
1278.0, 0.0231844
1280.0, 0.0255472
1282.0, 0.0263859
1284.0, 0.0287467
1286, 0.0
1288, 0.0
1290, 0.0
1292, 0.0
1294, 0.0
1296, 0.0
1298, 0.0
1300, 0.0
1302, 0.0
1304, 0.0
1306, 0.0
1308, 0.0
1310, 0.0
1312, 0.0
1314, 0.0
1316, 0.0
1318, 0.0
1320, 0.0
1322, 0.0
1324, 0.0
1326, 0.0
1328, 0.0
1330, 0.0
1332, 0.0
1334, 0.0
1336, 0.0
1338, 0.0
1340, 0.0
1342, 0.0
1344, 0.0
1346, 0.0
1348, 0.0
1350, 0.0
1352, 0.0
1354, 0.0
1356, 0.0
1358, 0.0
1360, 0.0
1362, 0.0
1364, 0.0
1366, 0.0
1368, 0.0
1370, 0.0
1372, 0.0
1374, 0.0
1376, 0.0
1378, 0.0
1380, 0.0
1382, 0.0
1384, 0.0
1386, 0.0
1388, 0.0
1390, 0.0
1392, 0.0
1394, 0.0
1396, 0.0
1398, 0.0
1400, 0.0
1402, 0.0
1404, 0.0
1406, 0.0
1408, 0.0
1410, 0.0
1412, 0.0
1414, 0.0
1416, 0.0
1418, 0.0
1420, 0.0
1422, 0.0
1424, 0.0
1426, 0.0
1428, 0.0
1430, 0.0
1432, 0.0
1434, 0.0
1436, 0.0
1438, 0.0
1440, 0.0
1442, 0.0
1444, 0.0
1446, 0.0
1448, 0.0
1450, 0.0
1452, 0.0
1454, 0.0
1456, 0.0
1458, 0.0
1460, 0.0
1462, 0.0
1464, 0.0
1466, 0.0
1468, 0.0
1470, 0.0
1472, 0.0
1474, 0.0
1476, 0.0
1478, 0.0
1480, 0.0
1482, 0.0
1484, 0.0
1486, 0.0
1488, 0.0
1490, 0.0
1492, 0.0
1494, 0.0
1496, 0.0
1498, 0.0
1500, 0.0
1502, 0.0
1504, 0.0
1506, 0.0
1508, 0.0
1510, 0.0
1512, 0.0
1514, 0.0
1516, 0.0
1518, 0.0
1520, 0.0
1522, 0.0
1524, 0.0
1526, 0.0
1528, 0.0
1530, 0.0
1532, 0.0
1534, 0.0
1536, 0.0
1538, 0.0
1540, 0.0
1542, 0.0
1544, 0.0
1546, 0.0
1548, 0.0
1550, 0.0
1552, 0.0
1554, 0.0
1556, 0.0
1558, 0.0
1560, 0.0
1562, 0.0
1564, 0.0
1566, 0.0
1568, 0.0
1570, 0.0
1572, 0.0
1574, 0.0
1576, 0.0
1578, 0.0
1580, 0.0
1582, 0.0
1584, 0.0
1586, 0.0
1588, 0.0
1590, 0.0
1592, 0.0
1594, 0.0
1596, 0.0
1598, 0.0
1599, 0.0