File: raw data/Dataset_2/GlassNd/GlassNd__R110077__Raman__532__0__unoriented__Raman_Data_Processed__35488.txt
30, 0.0
32, 0.0
34, 0.0
36, 0.0
38, 0.0
40, 0.0
42, 0.0
44, 0.0
46, 0.0
48, 0.0
50, 0.0
52, 0.0
54, 0.0
56, 0.0
58, 0.0
60, 0.0
62, 0.0
64, 0.0
66, 0.0
68, 0.0
70, 0.0
72, 0.0
74, 0.0
76, 0.0
78, 0.0
80, 0.0
82, 0.0
84, 0.0
86, 0.0
88, 0.0
90, 0.0
92, 0.0
94, 0.0
96, 0.0
98, 0.0
100, 0.0
102, 0.0
104, 0.0
106, 0.0
108, 0.0
110, 0.0
112, 0.0
114, 0.0
116, 0.0
118, 0.0
120, 0.0
122, 0.0
124, 0.0
126, 0.0
128, 0.0
130, 0.0
132, 0.0
134, 0.0
136, 0.0
138, 0.0
140, 0.0
142, 0.0
144, 0.0
146, 0.0
148, 0.0
150, 0.0
152, 0.0
154, 0.0
156, 0.0
158, 0.0
160, 0.0
162, 0.0
164, 0.0
166, 0.0
168, 0.0
170, 0.0
172, 0.0
174, 0.0
176, 0.0
178, 0.0
180, 0.0
182, 0.0
184, 0.0
186, 0.0
188.0, 0.982648
190.0, 0.985092
192.0, 0.98508
194.0, 0.989103
196.0, 0.994897
198.0, 0.993731
200.0, 0.999978
202.0, 0.993308
204.0, 0.993401
206.0, 0.987224
208.0, 0.981216
210.0, 0.98295
212.0, 0.973137
214.0, 0.972245
216.0, 0.973243
218.0, 0.968254
220.0, 0.968114
222.0, 0.963726
224.0, 0.962662
226.0, 0.951728
228.0, 0.948051
230.0, 0.940137
232.0, 0.940061
234.0, 0.934986
236.0, 0.934349
238.0, 0.931439
240.0, 0.920406
242.0, 0.91766
244.0, 0.91337
246.0, 0.906809
248.0, 0.907848
250.0, 0.89785
252.0, 0.89422
254.0, 0.890128
256.0, 0.887089
258.0, 0.882173
260.0, 0.877319
262.0, 0.873344
264.0, 0.864847
266.0, 0.859161
268.0, 0.857558
270.0, 0.852667
272.0, 0.849089
274.0, 0.847712
276.0, 0.847323
278.0, 0.837783
280.0, 0.835845
282.0, 0.826614
284.0, 0.819925
286.0, 0.81164
288.0, 0.807829
290.0, 0.806178
292.0, 0.797297
294.0, 0.799679
296.0, 0.795845
298.0, 0.78863
300.0, 0.787247
302.0, 0.782277
304.0, 0.781913
306.0, 0.777811
308.0, 0.770386
310.0, 0.765714
312.0, 0.758464
314.0, 0.757624
316.0, 0.754254
318.0, 0.751582
320.0, 0.744271
322.0, 0.74166
324.0, 0.734352
326.0, 0.729449
328.0, 0.725806
330.0, 0.719466
332.0, 0.714928
334.0, 0.714942
336.0, 0.712757
338.0, 0.706961
340.0, 0.701134
342.0, 0.696037
344.0, 0.690505
346.0, 0.687006
348.0, 0.679996
350.0, 0.678957
352.0, 0.673956
354.0, 0.669065
356.0, 0.668969
358.0, 0.661268
360.0, 0.658172
362.0, 0.650677
364.0, 0.64888
366.0, 0.64288
368.0, 0.636347
370.0, 0.631049
372.0, 0.628752
374.0, 0.62335
376.0, 0.616878
378.0, 0.6133
380.0, 0.608963
382.0, 0.604808
384.0, 0.602655
386.0, 0.596344
388.0, 0.587889
390.0, 0.586748
392.0, 0.580913
394.0, 0.576829
396.0, 0.573437
398.0, 0.567454
400.0, 0.564049
402.0, 0.557216
404.0, 0.555066
406.0, 0.552617
408.0, 0.543815
410.0, 0.542225
412.0, 0.54092
414.0, 0.536325
416.0, 0.531963
418.0, 0.524626
420.0, 0.521297
422.0, 0.515257
424.0, 0.513216
426.0, 0.508474
428.0, 0.506191
430.0, 0.501941
432.0, 0.497813
434.0, 0.493004
436.0, 0.491291
438.0, 0.486131
440.0, 0.483775
442.0, 0.477821
444.0, 0.480932
446.0, 0.474302
448.0, 0.471177
450.0, 0.467285
452.0, 0.462401
454.0, 0.457717
456.0, 0.45394
458.0, 0.450246
460.0, 0.446201
462.0, 0.444989
464.0, 0.438186
466.0, 0.434677
468.0, 0.431832
470.0, 0.428534
472.0, 0.424295
474.0, 0.416765
476.0, 0.414698
478.0, 0.410993
480.0, 0.408016
482.0, 0.403249
484.0, 0.400514
486.0, 0.396486
488.0, 0.393967
490.0, 0.38921
492.0, 0.385114
494.0, 0.385343
496.0, 0.378849
498.0, 0.373245
500.0, 0.373103
502.0, 0.363646
504.0, 0.364773
506.0, 0.356789
508.0, 0.353289
510.0, 0.34874
512.0, 0.343318
514.0, 0.340626
516.0, 0.337106
518.0, 0.329788
520.0, 0.323383
522.0, 0.316185
524.0, 0.312327
526.0, 0.309807
528.0, 0.308973
530.0, 0.299873
532.0, 0.292541
534.0, 0.287713
536.0, 0.283216
538.0, 0.27813
540.0, 0.275478
542.0, 0.270066
544.0, 0.265708
546.0, 0.262594
548.0, 0.256869
550.0, 0.25392
552.0, 0.250048
554.0, 0.246721
556.0, 0.241184
558.0, 0.238481
560.0, 0.236501
562.0, 0.236541
564.0, 0.230805
566.0, 0.228826
568.0, 0.224291
570.0, 0.221266
572.0, 0.21872
574.0, 0.2164
576.0, 0.214558
578.0, 0.209876
580.0, 0.209055
582.0, 0.205331
584.0, 0.204607
586.0, 0.199146
588.0, 0.195707
590.0, 0.193378
592.0, 0.191438
594.0, 0.188631
596.0, 0.184104
598.0, 0.18064
600.0, 0.178289
602.0, 0.172918
604.0, 0.170249
606.0, 0.165705
608.0, 0.164557
610.0, 0.162464
612.0, 0.158051
614.0, 0.155516
616.0, 0.151143
618.0, 0.150271
620.0, 0.147929
622.0, 0.144638
624.0, 0.139667
626.0, 0.138581
628.0, 0.13741
630.0, 0.13423
632.0, 0.131268
634.0, 0.130733
636.0, 0.13067
638.0, 0.128924
640.0, 0.126276
642.0, 0.121104
644.0, 0.12136
646.0, 0.119383
648.0, 0.117652
650.0, 0.115431
652.0, 0.112081
654.0, 0.112212
656.0, 0.109904
658.0, 0.10746
660.0, 0.106963
662.0, 0.105837
664.0, 0.10223
666.0, 0.100728
668.0, 0.0980878
670.0, 0.0951882
672.0, 0.0939643
674.0, 0.0933624
676.0, 0.0903178
678.0, 0.0882571
680.0, 0.0858502
682.0, 0.084896
684.0, 0.082413
686.0, 0.0810802
688.0, 0.077916
690.0, 0.0783065
692.0, 0.0724145
694.0, 0.0737054
696.0, 0.0710913
698.0, 0.0698387
700.0, 0.0683645
702.0, 0.0664378
704.0, 0.0645069
706.0, 0.0617442
708.0, 0.0615229
710.0, 0.0607095
712.0, 0.0574442
714.0, 0.0568193
716.0, 0.0582986
718.0, 0.0545985
720.0, 0.0526987
722.0, 0.0530838
724.0, 0.0503587
726.0, 0.0495889
728.0, 0.0499058
730.0, 0.0491631
732.0, 0.0476255
734.0, 0.0462532
736.0, 0.0444288
738.0, 0.045165
740.0, 0.0457842
742.0, 0.0429737
744.0, 0.0420077
746.0, 0.0408906
748.0, 0.0408505
750.0, 0.039348
752.0, 0.0394659
754.0, 0.0381428
756.0, 0.039795
758.0, 0.0404073
760.0, 0.0393458
762.0, 0.037584
764.0, 0.0356184
766.0, 0.0354486
768.0, 0.0350392
770.0, 0.033859
772.0, 0.0336335
774.0, 0.0347005
776.0, 0.0352907
778.0, 0.0322547
780.0, 0.0321454
782.0, 0.0292385
784.0, 0.0307914
786.0, 0.0290497
788.0, 0.0281377
790.0, 0.0271734
792.0, 0.0266391
794.0, 0.0270118
796.0, 0.0264923
798.0, 0.0229083
800.0, 0.0233743
802.0, 0.02282
804.0, 0.0209418
806.0, 0.0213427
808.0, 0.0173414
810.0, 0.0177173
812.0, 0.0180394
814.0, 0.0163486
816.0, 0.0176479
818.0, 0.0131279
820.0, 0.0130619
822.0, 0.0128202
824.0, 0.0120193
826.0, 0.00673752
828.0, 0.00972078
830.0, 0.00699319
832.0, 0.00855609
834.0, 0.00844068
836.0, 0.00868178
838.0, 0.00601681
840.0, 0.00789077
842.0, 0.00867119
844.0, 0.00904584
846.0, 0.0109632
848.0, 0.00872639
850.0, 0.00984104
852.0, 0.0122468
854.0, 0.0162013
856.0, 0.0163213
858.0, 0.0182842
860.0, 0.0196121
862.0, 0.0215553
864.0, 0.0236285
866.0, 0.0257329
868.0, 0.0265814
870.0, 0.0310635
872.0, 0.0318133
874.0, 0.0358125
876.0, 0.0377634
878.0, 0.0376167
880.0, 0.040402
882.0, 0.0418675
884.0, 0.0448046
886.0, 0.0488026
888.0, 0.049621
890.0, 0.052803
892.0, 0.0530234
894.0, 0.057896
896.0, 0.0601021
898.0, 0.0608774
900.0, 0.0643662
902.0, 0.0680034
904.0, 0.0713659
906.0, 0.0737261
908.0, 0.0754787
910.0, 0.0799768
912.0, 0.0790834
914.0, 0.0816108
916.0, 0.0872402
918.0, 0.0879669
920.0, 0.0899234
922.0, 0.0920962
924.0, 0.0947017
926.0, 0.0970069
928.0, 0.0978491
930.0, 0.102641
932.0, 0.101147
934.0, 0.104199
936.0, 0.106233
938.0, 0.107664
940.0, 0.109375
942.0, 0.110033
944.0, 0.111931
946.0, 0.115282
948.0, 0.113961
950.0, 0.117173
952.0, 0.119015
954.0, 0.119263
956.0, 0.122251
958.0, 0.12213
960.0, 0.125019
962.0, 0.125467
964.0, 0.123956
966.0, 0.129183
968.0, 0.130334
970.0, 0.1287
972.0, 0.131897
974.0, 0.131931
976.0, 0.132854
978.0, 0.132841
980.0, 0.135087
982.0, 0.136951
984.0, 0.136808
986.0, 0.136932
988.0, 0.138593
990.0, 0.139336
992.0, 0.139507
994.0, 0.142112
996.0, 0.141792
998.0, 0.14162
1000.0, 0.142368
1002.0, 0.142708
1004.0, 0.144398
1006.0, 0.143832
1008.0, 0.14444
1010.0, 0.144163
1012.0, 0.141948
1014.0, 0.143562
1016.0, 0.14074
1018.0, 0.141748
1020.0, 0.143378
1022.0, 0.142725
1024.0, 0.143155
1026.0, 0.138494
1028.0, 0.140551
1030.0, 0.139279
1032.0, 0.137339
1034.0, 0.137938
1036.0, 0.136774
1038.0, 0.131777
1040.0, 0.130195
1042.0, 0.129264
1044.0, 0.125241
1046.0, 0.124247
1048.0, 0.121525
1050.0, 0.120108
1052.0, 0.118098
1054.0, 0.114514
1056.0, 0.111419
1058.0, 0.107661
1060.0, 0.104703
1062.0, 0.100718
1064.0, 0.0996062
1066.0, 0.0936375
1068.0, 0.0899264
1070.0, 0.0865202
1072.0, 0.0835923
1074.0, 0.0798671
1076.0, 0.0751078
1078.0, 0.0732122
1080.0, 0.0684608
1082.0, 0.067596
1084.0, 0.0632663
1086.0, 0.0595669
1088.0, 0.0575746
1090.0, 0.0532796
1092.0, 0.0516148
1094.0, 0.0489019
1096.0, 0.0454694
1098.0, 0.0443725
1100.0, 0.0429319
1102.0, 0.0384519
1104.0, 0.0361649
1106.0, 0.0346183
1108.0, 0.0323188
1110.0, 0.0309412
1112.0, 0.0274037
1114.0, 0.0268904
1116.0, 0.0256806
1118.0, 0.0240161
1120.0, 0.0230266
1122.0, 0.0212957
1124.0, 0.0190823
1126.0, 0.018065
1128.0, 0.0168701
1130.0, 0.016197
1132.0, 0.0148264
1134.0, 0.0119626
1136.0, 0.011687
1138.0, 0.0117988
1140.0, 0.0111418
1142.0, 0.0112803
1144.0, 0.00872308
1146.0, 0.0082826
1148.0, 0.00833564
1150.0, 0.00815887
1152.0, 0.00590218
1154.0, 0.00513447
1156.0, 0.00693989
1158.0, 0.00327
1160.0, 0.00342144
1162.0, 0.0033068
1164.0, 0.0023909
1166.0, 0.00355718
1168.0, 0.00197932
1170.0, 0.00258038
1172.0, 0.00176056
1174.0, 0.00412418
1176.0, 0.00209897
1178.0, 0.00107421
1180.0, 0.00208534
1182.0, 0.00142429
1184.0, 0.00130195
1186.0, 0.0030571
1188.0, 0.00291434
1190.0, 0.00124104
1192.0, 0.00160301
1194.0, 0.000690527
1196.0, 0.00223393
1198.0, 0.00441033
1200.0, 0.00406387
1202.0, 0.000220811
1204.0, 0.00311079
1206.0, 0.00337407
1208.0, 0.0053882
1210.0, 0.00474884
1212.0, 0.00462204
1214.0, 0.0045826
1216.0, 0.00482896
1218.0, 0.00642102
1220.0, 0.00616038
1222.0, 0.00682393
1224.0, 0.00909699
1226.0, 0.00735288
1228.0, 0.0104675
1230.0, 0.0100301
1232.0, 0.0100564
1234.0, 0.0111887
1236.0, 0.0131183
1238.0, 0.01175
1240.0, 0.0147983
1242.0, 0.0147418
1244.0, 0.0168262
1246.0, 0.0195825
1248.0, 0.0194026
1250.0, 0.0183711
1252.0, 0.0207127
1254.0, 0.0218435
1256.0, 0.0229522
1258.0, 0.0244184
1260.0, 0.027981
1262.0, 0.0273748
1264.0, 0.0288092
1266.0, 0.0307097
1268.0, 0.0324447
1270.0, 0.0332198
1272.0, 0.0339838
1274.0, 0.0363488
1276.0, 0.0361128
1278.0, 0.0397911
1280.0, 0.0390943
1282.0, 0.0403322
1284.0, 0.0419815
1286.0, 0.0433983
1288.0, 0.0455607
1290.0, 0.0454227
1292.0, 0.0484911
1294.0, 0.0484563
1296.0, 0.0497996
1298.0, 0.0509681
1300.0, 0.053064
1302.0, 0.0524627
1304, 0.0
1306, 0.0
1308, 0.0
1310, 0.0
1312, 0.0
1314, 0.0
1316, 0.0
1318, 0.0
1320, 0.0
1322, 0.0
1324, 0.0
1326, 0.0
1328, 0.0
1330, 0.0
1332, 0.0
1334, 0.0
1336, 0.0
1338, 0.0
1340, 0.0
1342, 0.0
1344, 0.0
1346, 0.0
1348, 0.0
1350, 0.0
1352, 0.0
1354, 0.0
1356, 0.0
1358, 0.0
1360, 0.0
1362, 0.0
1364, 0.0
1366, 0.0
1368, 0.0
1370, 0.0
1372, 0.0
1374, 0.0
1376, 0.0
1378, 0.0
1380, 0.0
1382, 0.0
1384, 0.0
1386, 0.0
1388, 0.0
1390, 0.0
1392, 0.0
1394, 0.0
1396, 0.0
1398, 0.0
1400, 0.0
1402, 0.0
1404, 0.0
1406, 0.0
1408, 0.0
1410, 0.0
1412, 0.0
1414, 0.0
1416, 0.0
1418, 0.0
1420, 0.0
1422, 0.0
1424, 0.0
1426, 0.0
1428, 0.0
1430, 0.0
1432, 0.0
1434, 0.0
1436, 0.0
1438, 0.0
1440, 0.0
1442, 0.0
1444, 0.0
1446, 0.0
1448, 0.0
1450, 0.0
1452, 0.0
1454, 0.0
1456, 0.0
1458, 0.0
1460, 0.0
1462, 0.0
1464, 0.0
1466, 0.0
1468, 0.0
1470, 0.0
1472, 0.0
1474, 0.0
1476, 0.0
1478, 0.0
1480, 0.0
1482, 0.0
1484, 0.0
1486, 0.0
1488, 0.0
1490, 0.0
1492, 0.0
1494, 0.0
1496, 0.0
1498, 0.0
1500, 0.0
1502, 0.0
1504, 0.0
1506, 0.0
1508, 0.0
1510, 0.0
1512, 0.0
1514, 0.0
1516, 0.0
1518, 0.0
1520, 0.0
1522, 0.0
1524, 0.0
1526, 0.0
1528, 0.0
1530, 0.0
1532, 0.0
1534, 0.0
1536, 0.0
1538, 0.0
1540, 0.0
1542, 0.0
1544, 0.0
1546, 0.0
1548, 0.0
1550, 0.0
1552, 0.0
1554, 0.0
1556, 0.0
1558, 0.0
1560, 0.0
1562, 0.0
1564, 0.0
1566, 0.0
1568, 0.0
1570, 0.0
1572, 0.0
1574, 0.0
1576, 0.0
1578, 0.0
1580, 0.0
1582, 0.0
1584, 0.0
1586, 0.0
1588, 0.0
1590, 0.0
1592, 0.0
1594, 0.0
1596, 0.0
1598, 0.0
1599, 0.0