File: raw data/Dataset_2/GlassNd/GlassNd__R110077__Raman__780__0__unoriented__Raman_Data_Processed__35490.txt
30, 0.0
32, 0.0
34, 0.0
36, 0.0
38, 0.0
40, 0.0
42, 0.0
44, 0.0
46, 0.0
48, 0.0
50, 0.0
52, 0.0
54, 0.0
56, 0.0
58, 0.0
60, 0.0
62, 0.0
64, 0.0
66, 0.0
68, 0.0
70, 0.0
72, 0.0
74, 0.0
76, 0.0
78, 0.0
80, 0.0
82, 0.0
84, 0.0
86, 0.0
88, 0.0
90, 0.0
92, 0.0
94, 0.0
96.0, 0.000875243
98.0, 0.000525349
100.0, 5.1396e-05
102.0, 0.000135077
104.0, 0.000137329
106.0, 0.000445496
108.0, 0.00084535
110.0, 0.00130289
112.0, 0.00141991
114.0, 0.00222492
116.0, 0.00251073
118.0, 0.00305479
120.0, 0.00339308
122.0, 0.00389738
124.0, 0.00427622
126.0, 0.00492358
128.0, 0.00544188
130.0, 0.00609855
132.0, 0.00655845
134.0, 0.0069156
136.0, 0.00772819
138.0, 0.00803224
140.0, 0.00884606
142.0, 0.00932994
144.0, 0.00978171
146.0, 0.0103501
148.0, 0.0109959
150.0, 0.0116603
152.0, 0.0122773
154.0, 0.01288
156.0, 0.0134223
158.0, 0.0141684
160.0, 0.0149074
162.0, 0.015498
164.0, 0.016092
166.0, 0.0168739
168.0, 0.0174042
170.0, 0.0178919
172.0, 0.0188648
174.0, 0.0193281
176.0, 0.0203182
178.0, 0.0208838
180.0, 0.0215623
182.0, 0.0222183
184.0, 0.0228405
186.0, 0.0238498
188.0, 0.0242098
190.0, 0.024922
192.0, 0.0258085
194.0, 0.0263899
196.0, 0.0271269
198.0, 0.0276771
200.0, 0.0283279
202.0, 0.0291982
204.0, 0.0298735
206.0, 0.0303701
208.0, 0.0312135
210.0, 0.0318538
212.0, 0.0326926
214.0, 0.0332444
216.0, 0.0342461
218.0, 0.0349723
220.0, 0.0354352
222.0, 0.0361209
224.0, 0.0369456
226.0, 0.0376047
228.0, 0.038184
230.0, 0.0390968
232.0, 0.0397061
234.0, 0.0403641
236.0, 0.0408753
238.0, 0.0417333
240.0, 0.0424583
242.0, 0.0431026
244.0, 0.0436475
246.0, 0.0445192
248.0, 0.0450719
250.0, 0.0457956
252.0, 0.0464114
254.0, 0.0469024
256.0, 0.0479962
258.0, 0.0484201
260.0, 0.049399
262.0, 0.0500758
264.0, 0.0504017
266.0, 0.051209
268.0, 0.0519329
270.0, 0.052585
272.0, 0.0531827
274.0, 0.0537185
276.0, 0.054424
278.0, 0.0551983
280.0, 0.0557347
282.0, 0.0565345
284.0, 0.0570356
286.0, 0.0576167
288.0, 0.0584532
290.0, 0.0589067
292.0, 0.0597589
294.0, 0.0603394
296.0, 0.0610739
298.0, 0.0618159
300.0, 0.0624187
302.0, 0.0630786
304.0, 0.064037
306.0, 0.0644149
308.0, 0.0654973
310.0, 0.0662391
312.0, 0.0669309
314.0, 0.0677637
316.0, 0.0685123
318.0, 0.0692104
320.0, 0.0704393
322.0, 0.0713755
324.0, 0.0720471
326.0, 0.0730711
328.0, 0.0739675
330.0, 0.0755493
332.0, 0.0765378
334.0, 0.0778354
336.0, 0.0791091
338.0, 0.080766
340.0, 0.081905
342.0, 0.0831801
344.0, 0.0848304
346.0, 0.0864925
348.0, 0.0879833
350.0, 0.0897659
352.0, 0.0917561
354.0, 0.0934552
356.0, 0.0951503
358.0, 0.0978112
360.0, 0.0993184
362.0, 0.101455
364.0, 0.103608
366.0, 0.105915
368.0, 0.107859
370.0, 0.110575
372.0, 0.112763
374.0, 0.114961
376.0, 0.117338
378.0, 0.119663
380.0, 0.121706
382.0, 0.124093
384.0, 0.126623
386.0, 0.129161
388.0, 0.13098
390.0, 0.133204
392.0, 0.135365
394.0, 0.137798
396.0, 0.139625
398.0, 0.141936
400.0, 0.143769
402.0, 0.145729
404.0, 0.147449
406.0, 0.149247
408.0, 0.150794
410.0, 0.152502
412.0, 0.153744
414.0, 0.155667
416.0, 0.156821
418.0, 0.157805
420.0, 0.159441
422.0, 0.160179
424.0, 0.161603
426.0, 0.161889
428.0, 0.162718
430.0, 0.163499
432.0, 0.164144
434.0, 0.164266
436.0, 0.164699
438.0, 0.16512
440.0, 0.165031
442.0, 0.165168
444.0, 0.165329
446.0, 0.165548
448.0, 0.165647
450.0, 0.165197
452.0, 0.164615
454.0, 0.164296
456.0, 0.163999
458.0, 0.163461
460.0, 0.163602
462.0, 0.16289
464.0, 0.162141
466.0, 0.161457
468.0, 0.161014
470.0, 0.160882
472.0, 0.159954
474.0, 0.15962
476.0, 0.158572
478.0, 0.158352
480.0, 0.157199
482.0, 0.15694
484.0, 0.156191
486.0, 0.155303
488.0, 0.155
490.0, 0.154645
492.0, 0.153677
494.0, 0.153024
496.0, 0.152337
498.0, 0.152365
500.0, 0.151797
502.0, 0.151022
504.0, 0.150689
506.0, 0.150042
508.0, 0.150014
510.0, 0.149421
512.0, 0.148742
514.0, 0.14851
516.0, 0.147957
518.0, 0.147661
520.0, 0.147177
522.0, 0.146703
524.0, 0.146223
526.0, 0.145619
528.0, 0.145052
530.0, 0.144809
532.0, 0.144547
534.0, 0.14374
536.0, 0.143309
538.0, 0.142912
540.0, 0.142517
542.0, 0.141679
544.0, 0.14156
546.0, 0.140935
548.0, 0.140691
550.0, 0.140152
552.0, 0.140094
554.0, 0.139535
556.0, 0.139033
558.0, 0.138577
560.0, 0.138601
562.0, 0.137908
564.0, 0.137496
566.0, 0.137084
568.0, 0.136661
570.0, 0.136052
572.0, 0.135361
574.0, 0.134911
576.0, 0.134736
578.0, 0.134047
580.0, 0.133539
582.0, 0.133234
584.0, 0.132455
586.0, 0.132149
588.0, 0.131458
590.0, 0.13127
592.0, 0.130852
594.0, 0.130404
596.0, 0.129558
598.0, 0.129323
600.0, 0.128691
602.0, 0.128065
604.0, 0.127708
606.0, 0.127443
608.0, 0.126763
610.0, 0.126054
612.0, 0.125932
614.0, 0.125224
616.0, 0.124761
618.0, 0.124139
620.0, 0.123681
622.0, 0.123054
624.0, 0.122821
626.0, 0.122387
628.0, 0.121631
630.0, 0.12136
632.0, 0.120548
634.0, 0.119956
636.0, 0.119724
638.0, 0.119171
640.0, 0.118399
642.0, 0.117978
644.0, 0.117776
646.0, 0.116725
648.0, 0.116479
650.0, 0.115926
652.0, 0.115146
654.0, 0.114826
656.0, 0.114011
658.0, 0.11332
660.0, 0.11308
662.0, 0.112074
664.0, 0.111379
666.0, 0.111007
668.0, 0.110437
670.0, 0.10986
672.0, 0.10921
674.0, 0.108535
676.0, 0.10783
678.0, 0.107436
680.0, 0.106734
682.0, 0.106125
684.0, 0.105222
686.0, 0.104479
688.0, 0.104253
690.0, 0.103507
692.0, 0.103046
694.0, 0.102349
696.0, 0.10169
698.0, 0.100987
700.0, 0.100162
702.0, 0.100106
704.0, 0.0992995
706.0, 0.0986456
708.0, 0.0982153
710.0, 0.0976842
712.0, 0.0970324
714.0, 0.0966196
716.0, 0.0956563
718.0, 0.0951415
720.0, 0.0943315
722.0, 0.0939101
724.0, 0.0930654
726.0, 0.092756
728.0, 0.0920806
730.0, 0.09141
732.0, 0.0908041
734.0, 0.0902655
736.0, 0.089502
738.0, 0.0889591
740.0, 0.0882303
742.0, 0.0874481
744.0, 0.0865748
746.0, 0.086232
748.0, 0.0855685
750.0, 0.0850297
752.0, 0.0840922
754.0, 0.0835995
756.0, 0.0829961
758.0, 0.0821614
760.0, 0.0818426
762.0, 0.0808098
764.0, 0.0801971
766.0, 0.0791933
768.0, 0.0787162
770.0, 0.0780255
772.0, 0.0771373
774.0, 0.0764928
776.0, 0.0762021
778.0, 0.0754811
780.0, 0.0748162
782.0, 0.0740739
784.0, 0.073525
786.0, 0.0725006
788.0, 0.0717394
790.0, 0.0711061
792.0, 0.0705824
794.0, 0.0699002
796.0, 0.0691657
798.0, 0.0684087
800.0, 0.0677024
802.0, 0.0669007
804.0, 0.0656745
806.0, 0.0655131
808.0, 0.0645043
810.0, 0.0639375
812.0, 0.063004
814.0, 0.0623348
816.0, 0.0617037
818.0, 0.0610976
820.0, 0.0604461
822.0, 0.059631
824.0, 0.0588458
826.0, 0.0582722
828.0, 0.0578129
830.0, 0.0569837
832.0, 0.0563073
834.0, 0.0553403
836.0, 0.0551843
838.0, 0.0542469
840.0, 0.0535342
842.0, 0.0529321
844.0, 0.0522374
846.0, 0.0518461
848.0, 0.0512935
850.0, 0.0504461
852.0, 0.0498656
854.0, 0.0493375
856.0, 0.0490074
858.0, 0.0483735
860.0, 0.047721
862.0, 0.0474235
864.0, 0.0468745
866.0, 0.0461907
868.0, 0.0458608
870.0, 0.0454153
872.0, 0.0450977
874.0, 0.0448089
876.0, 0.0443732
878.0, 0.044064
880.0, 0.0434954
882.0, 0.0431986
884.0, 0.0430148
886.0, 0.0424712
888.0, 0.0422321
890.0, 0.0420267
892.0, 0.0418265
894.0, 0.0417534
896.0, 0.0415435
898.0, 0.0412607
900.0, 0.0411056
902.0, 0.0409852
904.0, 0.041008
906.0, 0.0410292
908.0, 0.0409776
910.0, 0.0407103
912.0, 0.0408159
914.0, 0.0407958
916.0, 0.0407755
918.0, 0.0410973
920.0, 0.0408485
922.0, 0.0408132
924.0, 0.0409503
926.0, 0.0411908
928.0, 0.0409518
930.0, 0.0413248
932.0, 0.0411959
934.0, 0.0413506
936.0, 0.041547
938.0, 0.0418942
940.0, 0.0419998
942.0, 0.0422363
944.0, 0.0424126
946.0, 0.0426473
948.0, 0.0430323
950.0, 0.0432534
952.0, 0.0435967
954.0, 0.0438951
956.0, 0.0443141
958.0, 0.0447427
960.0, 0.0451685
962.0, 0.0453272
964.0, 0.045801
966.0, 0.0463585
968.0, 0.0467781
970.0, 0.0472287
972.0, 0.0477
974.0, 0.0482463
976.0, 0.0487976
978.0, 0.0490505
980.0, 0.0498352
982.0, 0.0503648
984.0, 0.0511193
986.0, 0.0520287
988.0, 0.0526386
990.0, 0.0534356
992.0, 0.0540622
994.0, 0.0554043
996.0, 0.0557876
998.0, 0.0570407
1000.0, 0.0580291
1002.0, 0.0590124
1004.0, 0.0603216
1006.0, 0.0613609
1008.0, 0.062741
1010.0, 0.0641114
1012.0, 0.065476
1014.0, 0.0668533
1016.0, 0.068511
1018.0, 0.0698387
1020.0, 0.0714788
1022.0, 0.0731069
1024.0, 0.0746894
1026.0, 0.0767892
1028.0, 0.0784775
1030.0, 0.0804758
1032.0, 0.0825473
1034.0, 0.0845666
1036.0, 0.0864215
1038.0, 0.0895045
1040.0, 0.0911978
1042.0, 0.093659
1044.0, 0.0960187
1046.0, 0.0985336
1048.0, 0.101224
1050.0, 0.103834
1052.0, 0.106858
1054.0, 0.10998
1056.0, 0.113223
1058.0, 0.11572
1060.0, 0.119107
1062.0, 0.122559
1064.0, 0.126078
1066.0, 0.129977
1068.0, 0.133569
1070.0, 0.137646
1072.0, 0.141543
1074.0, 0.146235
1076.0, 0.150131
1078.0, 0.154859
1080.0, 0.159307
1082.0, 0.164524
1084.0, 0.169118
1086.0, 0.173921
1088.0, 0.179384
1090.0, 0.184824
1092.0, 0.190545
1094.0, 0.196008
1096.0, 0.201203
1098.0, 0.207291
1100.0, 0.213027
1102.0, 0.218953
1104.0, 0.225112
1106.0, 0.231196
1108.0, 0.237964
1110.0, 0.24405
1112.0, 0.250955
1114.0, 0.256891
1116.0, 0.263905
1118.0, 0.270718
1120.0, 0.277578
1122.0, 0.284741
1124.0, 0.292871
1126.0, 0.300201
1128.0, 0.30816
1130.0, 0.315743
1132.0, 0.324317
1134.0, 0.332643
1136.0, 0.34093
1138.0, 0.349014
1140.0, 0.357181
1142.0, 0.366488
1144.0, 0.375022
1146.0, 0.383885
1148.0, 0.393598
1150.0, 0.402893
1152.0, 0.411359
1154.0, 0.421216
1156.0, 0.430329
1158.0, 0.439959
1160.0, 0.450336
1162.0, 0.459898
1164.0, 0.470738
1166.0, 0.479784
1168.0, 0.490366
1170.0, 0.500745
1172.0, 0.510404
1174.0, 0.520942
1176.0, 0.53116
1178.0, 0.539875
1180.0, 0.550949
1182.0, 0.560134
1184.0, 0.570689
1186.0, 0.580116
1188.0, 0.590631
1190.0, 0.600819
1192.0, 0.611942
1194.0, 0.620319
1196.0, 0.630746
1198.0, 0.640281
1200.0, 0.648855
1202.0, 0.659674
1204.0, 0.667705
1206.0, 0.677078
1208.0, 0.685548
1210.0, 0.696005
1212.0, 0.705045
1214.0, 0.715339
1216.0, 0.724371
1218.0, 0.732444
1220.0, 0.740168
1222.0, 0.747995
1224.0, 0.757365
1226.0, 0.764838
1228.0, 0.774705
1230.0, 0.78281
1232.0, 0.791211
1234.0, 0.799814
1236.0, 0.807899
1238.0, 0.813504
1240.0, 0.820148
1242.0, 0.826365
1244.0, 0.835058
1246.0, 0.842662
1248.0, 0.849341
1250.0, 0.855798
1252.0, 0.86413
1254.0, 0.868037
1256.0, 0.878081
1258.0, 0.884152
1260.0, 0.893175
1262.0, 0.900919
1264.0, 0.908275
1266.0, 0.915502
1268.0, 0.923359
1270.0, 0.930692
1272.0, 0.938299
1274.0, 0.946854
1276.0, 0.953798
1278.0, 0.965182
1280.0, 0.97261
1282.0, 0.984449
1284.0, 0.994315
1286, 0.0
1288, 0.0
1290, 0.0
1292, 0.0
1294, 0.0
1296, 0.0
1298, 0.0
1300, 0.0
1302, 0.0
1304, 0.0
1306, 0.0
1308, 0.0
1310, 0.0
1312, 0.0
1314, 0.0
1316, 0.0
1318, 0.0
1320, 0.0
1322, 0.0
1324, 0.0
1326, 0.0
1328, 0.0
1330, 0.0
1332, 0.0
1334, 0.0
1336, 0.0
1338, 0.0
1340, 0.0
1342, 0.0
1344, 0.0
1346, 0.0
1348, 0.0
1350, 0.0
1352, 0.0
1354, 0.0
1356, 0.0
1358, 0.0
1360, 0.0
1362, 0.0
1364, 0.0
1366, 0.0
1368, 0.0
1370, 0.0
1372, 0.0
1374, 0.0
1376, 0.0
1378, 0.0
1380, 0.0
1382, 0.0
1384, 0.0
1386, 0.0
1388, 0.0
1390, 0.0
1392, 0.0
1394, 0.0
1396, 0.0
1398, 0.0
1400, 0.0
1402, 0.0
1404, 0.0
1406, 0.0
1408, 0.0
1410, 0.0
1412, 0.0
1414, 0.0
1416, 0.0
1418, 0.0
1420, 0.0
1422, 0.0
1424, 0.0
1426, 0.0
1428, 0.0
1430, 0.0
1432, 0.0
1434, 0.0
1436, 0.0
1438, 0.0
1440, 0.0
1442, 0.0
1444, 0.0
1446, 0.0
1448, 0.0
1450, 0.0
1452, 0.0
1454, 0.0
1456, 0.0
1458, 0.0
1460, 0.0
1462, 0.0
1464, 0.0
1466, 0.0
1468, 0.0
1470, 0.0
1472, 0.0
1474, 0.0
1476, 0.0
1478, 0.0
1480, 0.0
1482, 0.0
1484, 0.0
1486, 0.0
1488, 0.0
1490, 0.0
1492, 0.0
1494, 0.0
1496, 0.0
1498, 0.0
1500, 0.0
1502, 0.0
1504, 0.0
1506, 0.0
1508, 0.0
1510, 0.0
1512, 0.0
1514, 0.0
1516, 0.0
1518, 0.0
1520, 0.0
1522, 0.0
1524, 0.0
1526, 0.0
1528, 0.0
1530, 0.0
1532, 0.0
1534, 0.0
1536, 0.0
1538, 0.0
1540, 0.0
1542, 0.0
1544, 0.0
1546, 0.0
1548, 0.0
1550, 0.0
1552, 0.0
1554, 0.0
1556, 0.0
1558, 0.0
1560, 0.0
1562, 0.0
1564, 0.0
1566, 0.0
1568, 0.0
1570, 0.0
1572, 0.0
1574, 0.0
1576, 0.0
1578, 0.0
1580, 0.0
1582, 0.0
1584, 0.0
1586, 0.0
1588, 0.0
1590, 0.0
1592, 0.0
1594, 0.0
1596, 0.0
1598, 0.0
1599, 0.0