File: raw data/Dataset_2/Silicon/Silicon__R050145-3__Raman__514__90__ccw__Raman_Data_Processed__5984.txt
30, 0.0
32, 0.0
34, 0.0
36, 0.0
38, 0.0
40, 0.0
42, 0.0
44, 0.0
46, 0.0
48, 0.0
50, 0.0
52, 0.0
54, 0.0
56, 0.0
58, 0.0
60, 0.0
62, 0.0
64, 0.0
66, 0.0
68, 0.0
70, 0.0
72, 0.0
74, 0.0
76, 0.0
78, 0.0
80, 0.0
82, 0.0
84, 0.0
86, 0.0
88, 0.0
90, 0.0
92, 0.0
94, 0.0
96, 0.0
98, 0.0
100, 0.0
102, 0.0
104, 0.0
106, 0.0
108, 0.0
110, 0.0
112, 0.0
114, 0.0
116.0, 0.0185086
118.0, 0.00497454
120.0, 0.0278278
122.0, 0.0288027
124.0, 0.0248181
126.0, 0.00857265
128.0, 0.0253078
130.0, 0.0233332
132.0, 0.0167635
134.0, 0.0247573
136.0, 0.0391766
138.0, 0.0584044
140.0, 0.0700516
142.0, 0.0616022
144.0, 0.0698179
146.0, 0.062893
148.0, 0.0608956
150.0, 0.0550399
152.0, 0.0460768
154.0, 0.0456992
156.0, 0.0457175
158.0, 0.0333184
160.0, 0.0266062
162.0, 0.0240451
164.0, 0.0253849
166.0, 0.0247947
168.0, 0.0269729
170.0, 0.0359795
172.0, 0.033807
174.0, 0.0250174
176.0, 0.0363136
178.0, 0.0241753
180.0, 0.0227613
182.0, 0.0214066
184.0, 0.0266159
186.0, 0.0229112
188.0, 0.0248255
190.0, 0.0211351
192.0, 0.0254549
194.0, 0.0148896
196.0, 0.016103
198.0, 0.0127448
200.0, 0.00701987
202.0, 0.0155613
204.0, 0.0126328
206.0, 0.00602623
208.0, 0.00128414
210.0, 0.00244385
212.0, 0.00457624
214.0, 0.00429856
216.0, 0.00296497
218.0, 0.0033166
220.0, 0.00310315
222.0, 0.00744717
224.0, 0.0037107
226.0, 0.00234231
228.0, 0.00471854
230.0, 0.00537458
232.0, 0.0048085
234.0, 0.00157367
236.0, 0.00152754
238.0, 0.00887834
240.0, 0.00503716
242.0, 0.0041974
244.0, 0.00851862
246.0, 0.00817072
248.0, 0.0123749
250.0, 0.00730901
252.0, 0.0041993
254.0, 0.00402516
256.0, 0.00292564
258.0, 0.00272582
260.0, 0.00670465
262.0, 0.0100319
264.0, 0.00258382
266.0, 0.00898855
268.0, 0.0049867
270.0, 0.00253895
272.0, 0.00476134
274.0, 0.0101102
276.0, 0.00754339
278.0, 0.0104567
280.0, 0.0208061
282.0, 0.021115
284.0, 0.0316305
286.0, 0.0424445
288.0, 0.0506613
290.0, 0.0547757
292.0, 0.0565694
294.0, 0.0610291
296.0, 0.0661334
298.0, 0.0843875
300.0, 0.0789153
302.0, 0.0885159
304.0, 0.0889575
306.0, 0.0849207
308.0, 0.0800337
310.0, 0.076161
312.0, 0.0775995
314.0, 0.076748
316.0, 0.0781403
318.0, 0.0810487
320.0, 0.0778921
322.0, 0.0752081
324.0, 0.0773462
326.0, 0.0770183
328.0, 0.0788826
330.0, 0.0783894
332.0, 0.0796147
334.0, 0.0786281
336.0, 0.0813999
338.0, 0.0789452
340.0, 0.0770674
342.0, 0.0744554
344.0, 0.0741074
346.0, 0.0733526
348.0, 0.0737393
350.0, 0.0689646
352.0, 0.0637995
354.0, 0.0680604
356.0, 0.0666727
358.0, 0.0681991
360.0, 0.0742992
362.0, 0.0661645
364.0, 0.064544
366.0, 0.0625136
368.0, 0.0693597
370.0, 0.0665799
372.0, 0.0615597
374.0, 0.0558909
376.0, 0.0592571
378.0, 0.0559881
380.0, 0.0603913
382.0, 0.0591478
384.0, 0.054307
386.0, 0.0500144
388.0, 0.0499147
390.0, 0.0504505
392.0, 0.0520402
394.0, 0.0529678
396.0, 0.0511097
398.0, 0.0461478
400.0, 0.0476617
402.0, 0.0493348
404.0, 0.0534122
406.0, 0.0496227
408.0, 0.0475438
410.0, 0.0447098
412.0, 0.048613
414.0, 0.0465792
416.0, 0.0464043
418.0, 0.0501605
420.0, 0.0478241
422.0, 0.0514149
424.0, 0.055719
426.0, 0.0615079
428.0, 0.0618065
430.0, 0.060691
432.0, 0.0591446
434.0, 0.0548814
436.0, 0.0622906
438.0, 0.0577956
440.0, 0.0543392
442.0, 0.0574638
444.0, 0.0567487
446.0, 0.0544143
448.0, 0.0546727
450.0, 0.0524282
452.0, 0.0534629
454.0, 0.0522943
456.0, 0.0569559
458.0, 0.0591439
460.0, 0.0551719
462.0, 0.0563031
464.0, 0.0564486
466.0, 0.059312
468.0, 0.0628403
470.0, 0.0611674
472.0, 0.0598839
474.0, 0.0635437
476.0, 0.0600033
478.0, 0.0627132
480.0, 0.0620296
482.0, 0.0671399
484.0, 0.0649347
486.0, 0.0665166
488.0, 0.0676955
490.0, 0.0681108
492.0, 0.0656956
494.0, 0.0684594
496.0, 0.0686152
498.0, 0.0666246
500.0, 0.0679884
502.0, 0.0750606
504.0, 0.0808664
506.0, 0.0786426
508.0, 0.0971436
510.0, 0.109099
512.0, 0.151855
514.0, 0.219717
516.0, 0.385702
518.0, 0.658718
520.0, 0.918918
522.0, 0.965682
524.0, 0.795993
526.0, 0.566945
528.0, 0.373861
530.0, 0.247122
532.0, 0.159502
534.0, 0.108318
536.0, 0.088837
538.0, 0.0703926
540.0, 0.0574267
542.0, 0.0419498
544.0, 0.0413437
546.0, 0.0395944
548.0, 0.0339129
550.0, 0.0377159
552.0, 0.0292694
554.0, 0.0242387
556.0, 0.0280834
558.0, 0.0282073
560.0, 0.0256792
562.0, 0.034628
564.0, 0.0241867
566.0, 0.022507
568.0, 0.0286042
570.0, 0.0270401
572.0, 0.0229355
574.0, 0.0208481
576.0, 0.0217427
578.0, 0.0223214
580.0, 0.0169803
582.0, 0.0114707
584.0, 0.0140614
586.0, 0.00986486
588.0, 0.00661002
590.0, 0.00502312
592.0, 0.00478922
594.0, 0.00741118
596.0, 0.00445539
598.0, 0.00217184
600.0, 4.50975e-05
602.0, 0.00116968
604.0, 0.0051687
606.0, 0.00424599
608.0, 0.00291768
610.0, 0.0163061
612.0, 0.0054001
614.0, 0.00617896
616.0, 0.0107058
618.0, 0.00970328
620.0, 0.00560291
622.0, 0.0109521
624.0, 0.010672
626.0, 0.00745016
628.0, 0.00676194
630.0, 0.00537404
632.0, 0.00518561
634.0, 0.00760311
636.0, 0.00513753
638.0, 0.010704
640.0, 0.0091601
642.0, 0.00251927
644.0, 0.0123484
646.0, 0.0102523
648.0, 0.00845998
650.0, 0.00916647
652.0, 0.00740459
654.0, 0.00531593
656.0, 0.00465544
658.0, 0.00572156
660.0, 0.0085569
662.0, 0.00810912
664.0, 0.00658105
666.0, 0.00596577
668.0, 0.00742547
670.0, 0.00522112
672.0, 0.00910139
674.0, 0.00834803
676.0, 0.00577058
678.0, 0.00566011
680.0, 0.00690785
682.0, 0.007711
684.0, 0.00114596
686.0, 0.00226396
688.0, 0.00216381
690.0, 0.00174265
692.0, 0.00183839
694.0, 0.00210002
696.0, 0.00577732
698.0, 0.000914587
700.0, 0.00363908
702.0, 0.00482264
704.0, 0.00161854
706.0, 0.00757873
708.0, 0.0012182
710.0, 0.00165406
712.0, 0.00396877
714.0, 0.000905212
716.0, 0.00324126
718.0, 0.000511597
720.0, 0.000172618
722.0, 0.00330496
724.0, 0.00351404
726.0, 0.00386471
728.0, 0.00150967
730.0, 0.00273594
732.0, 0.00184743
734.0, 0.0023447
736.0, 0.00123157
738.0, 0.0013411
740.0, 0.00172015
742.0, 0.00315759
744.0, 0.00225286
746.0, 0.00144643
748.0, 0.00126497
750.0, 0.000269134
752.0, 0.00124286
754.0, 0.00167189
756.0, 0.00229359
758.0, 0.000689386
760.0, 0.000353238
762.0, 0.00260637
764.0, 0.00302868
766.0, 0.00127861
768.0, 0.00125306
770.0, 0.00444495
772.0, 0.000787927
774.0, 0.00361329
776.0, 0.000863216
778.0, 0.00115657
780.0, 0.00163973
782.0, 0.00215562
784.0, 0.00251449
786.0, 0.00232905
788.0, 0.0008775
790.0, 0.0035868
792.0, 0.00339023
794.0, 0.00507346
796.0, 0.00776355
798.0, 0.00244127
800.0, 0.00760679
802.0, 0.00938912
804.0, 0.00232311
806.0, 0.00399021
808.0, 0.00460208
810.0, 0.00861458
812.0, 0.00972046
814.0, 0.00535026
816.0, 0.00503884
818.0, 0.00382917
820.0, 0.00551846
822.0, 0.00877766
824.0, 0.00737304
826.0, 0.0064854
828.0, 0.00552871
830.0, 0.00926876
832.0, 0.00916256
834.0, 0.0114674
836.0, 0.00885285
838.0, 0.00777483
840.0, 0.0083401
842.0, 0.00673414
844.0, 0.00387841
846.0, 0.00581029
848.0, 0.00625027
850.0, 0.00234803
852.0, 0.010387
854.0, 0.017911
856.0, 0.00779472
858.0, 0.00294466
860.0, 0.00598039
862.0, 0.00273932
864.0, 0.0136149
866.0, 0.00367153
868.0, 0.00627898
870.0, 0.00222137
872.0, 0.00500219
874.0, 0.00479989
876.0, 0.00404261
878.0, 0.0050271
880.0, 0.00858994
882.0, 0.00933165
884.0, 0.00821318
886.0, 0.00759573
888.0, 0.00584094
890.0, 0.0101938
892.0, 0.0122618
894.0, 0.00599299
896.0, 0.00709446
898.0, 0.00506586
900.0, 0.0142132
902.0, 0.00738718
904.0, 0.0147739
906.0, 0.00630413
908.0, 0.00734899
910.0, 0.0127142
912.0, 0.0144815
914.0, 0.014015
916.0, 0.0126661
918.0, 0.0116703
920.0, 0.0145024
922.0, 0.0155849
924.0, 0.0209912
926.0, 0.0215233
928.0, 0.0250404
930.0, 0.0325144
932.0, 0.037871
934.0, 0.0459326
936.0, 0.0579609
938.0, 0.0675263
940.0, 0.0869872
942.0, 0.0939461
944.0, 0.1051
946.0, 0.104011
948.0, 0.105415
950.0, 0.104549
952.0, 0.113664
954.0, 0.117
956.0, 0.115189
958.0, 0.117353
960.0, 0.117178
962.0, 0.112983
964.0, 0.113976
966.0, 0.117038
968.0, 0.119905
970.0, 0.120388
972.0, 0.124631
974.0, 0.126452
976.0, 0.127476
978.0, 0.127289
980.0, 0.12432
982.0, 0.122638
984.0, 0.122097
986.0, 0.125096
988.0, 0.117317
990.0, 0.109909
992.0, 0.105311
994.0, 0.0945083
996.0, 0.0770287
998.0, 0.0734359
1000.0, 0.0625255
1002.0, 0.0560781
1004.0, 0.0543021
1006.0, 0.0513178
1008.0, 0.047249
1010.0, 0.0401047
1012.0, 0.0396155
1014.0, 0.0318437
1016.0, 0.038469
1018.0, 0.0349725
1020.0, 0.0338214
1022.0, 0.034539
1024.0, 0.0265565
1026.0, 0.0304413
1028.0, 0.032878
1030.0, 0.0219892
1032.0, 0.0207567
1034.0, 0.0210673
1036.0, 0.0191614
1038.0, 0.0215564
1040.0, 0.0207838
1042.0, 0.0178318
1044.0, 0.0193504
1046.0, 0.0183737
1048.0, 0.017903
1050.0, 0.0148147
1052.0, 0.0155254
1054.0, 0.0128915
1056.0, 0.0121651
1058.0, 0.00794174
1060.0, 0.0157115
1062.0, 0.00970422
1064.0, 0.0101729
1066.0, 0.0122157
1068.0, 0.0115461
1070.0, 0.0120374
1072.0, 0.0121974
1074.0, 0.012638
1076.0, 0.0127449
1078.0, 0.00903362
1080.0, 0.0129997
1082.0, 0.00790445
1084.0, 0.00924513
1086.0, 0.0118837
1088.0, 0.00998833
1090.0, 0.00764124
1092.0, 0.0111611
1094.0, 0.0131773
1096.0, 0.00815602
1098.0, 0.00953125
1100.0, 0.0143734
1102.0, 0.0066358
1104.0, 0.0142318
1106.0, 0.0182846
1108.0, 0.00957663
1110.0, 0.00764013
1112.0, 0.00689922
1114.0, 0.0081519
1116.0, 0.0114353
1118.0, 0.00722183
1120.0, 0.0100003
1122.0, 0.00754439
1124.0, 0.0113587
1126.0, 0.00358513
1128.0, 0.00778075
1130.0, 0.00755579
1132.0, 0.00636613
1134.0, 0.00110755
1136.0, 0.00138527
1138.0, 0.00297419
1140.0, 0.00279122
1142.0, 0.00120315
1144.0, 0.0059284
1146.0, 0.00252919
1148.0, 0.00144041
1150.0, 0.00207861
1152.0, 0.00502869
1154.0, 0.00108031
1156.0, 0.00317425
1158.0, 0.0040438
1160.0, 0.00212813
1162.0, 0.00365351
1164.0, 0.00457933
1166.0, 0.000929675
1168.0, 0.00217598
1170.0, 0.00219065
1172.0, 0.00624253
1174.0, 0.00347585
1176.0, 0.00286126
1178.0, 0.00518387
1180.0, 0.00792941
1182.0, 0.00812571
1184.0, 0.00976142
1186.0, 0.00365769
1188.0, 0.00541895
1190.0, 0.00178684
1192.0, 0.000392393
1194.0, 0.00172361
1196.0, 0.00243133
1198.0, 0.00363984
1200.0, 0.00772684
1202.0, 0.00514489
1204.0, 0.00826215
1206.0, 0.0065794
1208.0, 0.00569787
1210.0, 0.00603571
1212.0, 0.00667711
1214.0, 0.00891531
1216.0, 0.00816528
1218.0, 0.00575041
1220.0, 0.00913489
1222.0, 0.00660293
1224.0, 0.00814134
1226.0, 0.00491441
1228.0, 0.00602591
1230.0, 0.00739138
1232.0, 0.00940966
1234.0, 0.00619129
1236.0, 0.00898332
1238.0, 0.00800735
1240.0, 0.00794531
1242.0, 0.000820943
1244.0, 0.00702769
1246.0, 0.00717956
1248.0, 0.00560538
1250.0, 0.00982825
1252.0, 0.0108347
1254.0, 0.00627877
1256.0, 0.00478359
1258.0, 0.00519915
1260.0, 0.00853105
1262.0, 0.0100096
1264.0, 0.00769877
1266.0, 0.0103781
1268.0, 0.0102438
1270.0, 0.00877692
1272.0, 0.0058526
1274.0, 0.00554059
1276.0, 0.00478194
1278.0, 0.00357601
1280.0, 0.00320074
1282.0, 0.00406847
1284.0, 0.00481565
1286.0, 0.00590164
1288.0, 0.00611042
1290.0, 0.00593895
1292.0, 0.00590433
1294.0, 0.00493828
1296.0, 0.00320639
1298.0, 0.00291123
1300.0, 0.000607848
1302.0, 0.00199587
1304.0, 0.000758045
1306.0, 0.002491
1308.0, 0.00127667
1310.0, 0.005241
1312.0, 0.00423901
1314.0, 0.00382446
1316.0, 0.00248148
1318.0, 0.00225637
1320.0, 0.00275731
1322.0, 0.00135575
1324.0, 0.00362053
1326.0, 0.00267547
1328.0, 0.00332301
1330.0, 0.00620488
1332.0, 0.00849702
1334.0, 0.00654723
1336.0, 0.00653247
1338.0, 0.0115587
1340.0, 0.0085153
1342.0, 0.00465674
1344.0, 0.00907651
1346.0, 0.00395773
1348.0, 0.00217602
1350.0, 0.00463973
1352.0, 0.00693235
1354.0, 0.00230162
1356.0, 0.00458543
1358.0, 0.0134501
1360.0, 0.00931312
1362.0, 0.0101291
1364.0, 0.0136583
1366.0, 0.0115653
1368.0, 0.00870002
1370.0, 0.0107488
1372.0, 0.00707604
1374.0, 0.00599763
1376.0, 0.00794862
1378.0, 0.00773823
1380.0, 0.0091798
1382.0, 0.0109162
1384.0, 0.00680195
1386.0, 0.0121505
1388.0, 0.00754488
1390.0, 0.0119012
1392.0, 0.0105282
1394.0, 0.0106072
1396.0, 0.00885242
1398.0, 0.0117933
1400.0, 0.0126733
1402.0, 0.00848281
1404.0, 0.0104466
1406.0, 0.0124925
1408.0, 0.0147698
1410.0, 0.0134759
1412.0, 0.0106947
1414.0, 0.0118003
1416.0, 0.0116561
1418.0, 0.00716765
1420.0, 0.0124014
1422.0, 0.00753765
1424.0, 0.00841102
1426.0, 0.0096837
1428.0, 0.00403914
1430.0, 0.0111536
1432.0, 0.00465013
1434.0, 0.00700017
1436.0, 0.00560851
1438.0, 0.00834598
1440.0, 0.0118241
1442.0, 0.013961
1444.0, 0.00851112
1446.0, 0.0110109
1448.0, 0.0104539
1450.0, 0.0113193
1452.0, 0.0111576
1454.0, 0.00990247
1456.0, 0.0147895
1458.0, 0.0073746
1460.0, 0.00987193
1462.0, 0.00949071
1464.0, 0.0117077
1466.0, 0.0115055
1468.0, 0.00937579
1470.0, 0.0102452
1472.0, 0.0112092
1474.0, 0.00765713
1476.0, 0.00689448
1478.0, 0.00651888
1480.0, 0.00750327
1482.0, 0.00960335
1484.0, 0.00297512
1486.0, 0.00555586
1488.0, 0.00479824
1490.0, 0.010926
1492.0, 0.00954136
1494.0, 0.006117
1496.0, 0.0104833
1498.0, 0.00948236
1500.0, 0.00299135
1502.0, 0.00283961
1504.0, 0.00312552
1506.0, 0.00629361
1508.0, 0.00674482
1510.0, 0.00390405
1512.0, 0.000969695
1514.0, 0.00361444
1516, 0.0
1518, 0.0
1520, 0.0
1522, 0.0
1524, 0.0
1526, 0.0
1528, 0.0
1530, 0.0
1532, 0.0
1534, 0.0
1536, 0.0
1538, 0.0
1540, 0.0
1542, 0.0
1544, 0.0
1546, 0.0
1548, 0.0
1550, 0.0
1552, 0.0
1554, 0.0
1556, 0.0
1558, 0.0
1560, 0.0
1562, 0.0
1564, 0.0
1566, 0.0
1568, 0.0
1570, 0.0
1572, 0.0
1574, 0.0
1576, 0.0
1578, 0.0
1580, 0.0
1582, 0.0
1584, 0.0
1586, 0.0
1588, 0.0
1590, 0.0
1592, 0.0
1594, 0.0
1596, 0.0
1598, 0.0
1599, 0.0