File: raw data/Dataset_2/Silicon/Silicon__R040145__Raman__532__0__unoriented__Raman_Data_Processed__27508.txt
30, 0.0
32, 0.0
34, 0.0
36, 0.0
38, 0.0
40, 0.0
42, 0.0
44, 0.0
46, 0.0
48, 0.0
50, 0.0
52, 0.0
54, 0.0
56, 0.0
58, 0.0
60, 0.0
62, 0.0
64, 0.0
66, 0.0
68, 0.0
70, 0.0
72, 0.0
74, 0.0
76, 0.0
78, 0.0
80, 0.0
82, 0.0
84, 0.0
86, 0.0
88, 0.0
90, 0.0
92, 0.0
94, 0.0
96, 0.0
98, 0.0
100, 0.0
102, 0.0
104, 0.0
106, 0.0
108, 0.0
110, 0.0
112, 0.0
114, 0.0
116, 0.0
118, 0.0
120, 0.0
122, 0.0
124, 0.0
126, 0.0
128, 0.0
130, 0.0
132, 0.0
134, 0.0
136, 0.0
138, 0.0
140, 0.0
142, 0.0
144, 0.0
146, 0.0
148, 0.0
150, 0.0
152, 0.0
154, 0.0
156, 0.0
158, 0.0
160, 0.0
162.0, 9.55804e-05
164.0, 0.000815953
166.0, 0.000168395
168.0, 0.000318888
170.0, 9.96852e-05
172.0, 0.00106096
174.0, 0.000947991
176.0, 0.00136057
178.0, 0.000493967
180.0, 0.0006058
182.0, 0.00110004
184.0, 0.000950192
186.0, 0.00133154
188.0, 0.000981456
190.0, 0.000221085
192.0, 0.000318265
194.0, 0.000621472
196.0, 0.000744779
198.0, 0.000585717
200.0, 0.00255718
202.0, 3.58795e-05
204.0, 0.000326259
206.0, 0.000535298
208.0, 0.000243029
210.0, 6.94963e-05
212.0, 0.000164023
214.0, 2.18189e-05
216.0, 0.000548548
218.0, 0.000913329
220.0, 0.00125817
222.0, 0.00123042
224.0, 0.00122094
226.0, 0.00198873
228.0, 0.00252529
230.0, 0.00261048
232.0, 0.0022602
234.0, 0.00264313
236.0, 0.00281562
238.0, 0.00283459
240.0, 0.00211049
242.0, 0.00277221
244.0, 0.0025293
246.0, 0.00251884
248.0, 0.00234095
250.0, 0.00318927
252.0, 0.00281022
254.0, 0.0031155
256.0, 0.0022354
258.0, 0.00267742
260.0, 0.00270953
262.0, 0.0028848
264.0, 0.00292355
266.0, 0.00284398
268.0, 0.00329752
270.0, 0.00283711
272.0, 0.00364894
274.0, 0.00351224
276.0, 0.00335102
278.0, 0.00435705
280.0, 0.00390111
282.0, 0.00455295
284.0, 0.00490794
286.0, 0.00499973
288.0, 0.00574482
290.0, 0.0061825
292.0, 0.00646521
294.0, 0.00754362
296.0, 0.00823986
298.0, 0.00851949
300.0, 0.00910805
302.0, 0.00961768
304.0, 0.00906808
306.0, 0.00814541
308.0, 0.00728155
310.0, 0.00562904
312.0, 0.00411268
314.0, 0.00468954
316.0, 0.00329071
318.0, 0.00380745
320.0, 0.00250626
322.0, 0.00252628
324.0, 0.00247927
326.0, 0.0018511
328.0, 0.00214514
330.0, 0.00207627
332.0, 0.00153943
334.0, 0.001366
336.0, 0.0012249
338.0, 0.000980321
340.0, 0.000976614
342.0, 0.000643937
344.0, 0.000448668
346.0, 0.000185405
348.0, 0.000715039
350.0, 0.000769649
352.0, 0.000114465
354.0, 0.000318469
356.0, 0.000426477
358.0, 1.75365e-05
360.0, 0.000138291
362.0, 0.000321576
364.0, 0.000185185
366.0, 0.000149282
368.0, 0.00042426
370.0, 0.000320222
372.0, 0.000162428
374.0, 0.000377439
376.0, 0.000143164
378.0, 4.14205e-05
380.0, 0.000380591
382.0, 0.000431223
384.0, 0.000570752
386.0, 4.54074e-05
388.0, 0.000150736
390.0, 0.000229419
392.0, 0.00025788
394.0, 0.000144538
396.0, 7.83095e-05
398.0, 0.000204358
400.0, 0.00127538
402.0, 0.00111024
404.0, 0.00093165
406.0, 0.00155873
408.0, 0.00179667
410.0, 0.00192931
412.0, 0.00181626
414.0, 0.00153714
416.0, 0.00182817
418.0, 0.00183126
420.0, 0.0020664
422.0, 0.0021301
424.0, 0.00287743
426.0, 0.0023957
428.0, 0.00230989
430.0, 0.00320621
432.0, 0.00293178
434.0, 0.00278081
436.0, 0.00288544
438.0, 0.00244306
440.0, 0.00220753
442.0, 0.00128639
444.0, 0.000727464
446.0, 0.00069464
448.0, 0.000696743
450.0, 2.15967e-05
452.0, 0.000366841
454.0, 0.000129859
456.0, 0.000759185
458.0, 0.000456332
460.0, 0.000332101
462.0, 0.000110965
464.0, 0.000221052
466.0, 0.000521913
468.0, 0.000362944
470.0, 0.000994416
472.0, 0.00135096
474.0, 0.00159533
476.0, 0.00183767
478.0, 0.00235174
480.0, 0.00316031
482.0, 0.00388193
484.0, 0.00541597
486.0, 0.00567995
488.0, 0.00697336
490.0, 0.00843985
492.0, 0.00967204
494.0, 0.013064
496.0, 0.0163747
498.0, 0.0226398
500.0, 0.0334378
502.0, 0.056287
504.0, 0.103569
506.0, 0.171688
508.0, 0.21601
510.0, 0.259131
512.0, 0.325724
514.0, 0.43697
516.0, 0.614259
518.0, 0.805285
520.0, 0.976334
522.0, 0.890709
524.0, 0.496102
526.0, 0.24197
528.0, 0.136613
530.0, 0.0895938
532.0, 0.0635786
534.0, 0.0482847
536.0, 0.0395442
538.0, 0.0312713
540.0, 0.0259388
542.0, 0.0222718
544.0, 0.0185305
546.0, 0.0160926
548.0, 0.0131176
550.0, 0.0118253
552.0, 0.00992519
554.0, 0.00817928
556.0, 0.00674293
558.0, 0.00578022
560.0, 0.00463018
562.0, 0.00479406
564.0, 0.00346207
566.0, 0.00253471
568.0, 0.00256541
570.0, 0.00211701
572.0, 0.0011905
574.0, 0.000782421
576.0, 0.000287452
578.0, 0.000546919
580.0, 6.32506e-05
582.0, 6.81543e-05
584.0, 0.000120762
586.0, 0.000143513
588.0, 0.000371553
590.0, 0.000328997
592.0, 0.000247616
594.0, 0.000452267
596.0, 0.000346233
598.0, 6.42033e-05
600.0, 8.06534e-05
602.0, 0.000376294
604.0, 0.000324002
606.0, 0.000720636
608.0, 0.000600533
610.0, 0.00169209
612.0, 0.00158043
614.0, 0.00227411
616.0, 0.00246264
618.0, 0.00275678
620.0, 0.00255233
622.0, 0.00199643
624.0, 0.00158688
626.0, 0.00117746
628.0, 0.000995922
630.0, 0.000879643
632.0, 0.000943531
634.0, 0.00067392
636.0, 0.00078125
638.0, 0.00040637
640.0, 0.000784773
642.0, 0.000672984
644.0, 0.00104691
646.0, 0.000921016
648.0, 0.000886695
650.0, 0.00109782
652.0, 0.000954854
654.0, 0.000792168
656.0, 0.00092627
658.0, 0.00108175
660.0, 0.00150194
662.0, 0.00146726
664.0, 0.00183549
666.0, 0.00162151
668.0, 0.00168974
670.0, 0.00190766
672.0, 0.00153267
674.0, 0.00223722
676.0, 0.0014379
678.0, 0.00121771
680.0, 0.00172964
682.0, 0.00113078
684.0, 0.000814591
686.0, 0.00101331
688.0, 0.000955707
690.0, 0.000695566
692.0, 0.000575785
694.0, 0.00065078
696.0, 0.000312621
698.0, 0.000391451
700.0, 0.000473525
702.0, 0.000222218
704.0, 0.000494634
706.0, 0.000271588
708.0, 0.000127302
710.0, 9.37984e-05
712.0, 0.000156645
714.0, 8.46974e-05
716.0, 0.000426496
718.0, 0.000130686
720.0, 0.000257454
722.0, 0.000412363
724.0, 0.000254622
726.0, 0.000235447
728.0, 0.000370949
730.0, 0.000120667
732.0, 0.000426735
734.0, 0.000188371
736.0, 0.000219797
738.0, 0.000350589
740.0, 0.000529508
742.0, 0.000610526
744.0, 0.000147139
746.0, 0.000249923
748.0, 0.000400408
750.0, 1.32206e-05
752.0, 0.000421778
754.0, 0.000308519
756.0, 0.0002591
758.0, 0.000588631
760.0, 0.000498312
762.0, 0.000386607
764.0, 0.00064091
766.0, 0.000563188
768.0, 0.0003689
770.0, 0.000480523
772.0, 0.000585081
774.0, 0.00048326
776.0, 0.000965478
778.0, 0.000304938
780.0, 0.000553238
782.0, 0.00069423
784.0, 0.000466174
786.0, 0.000444435
788.0, 0.000386272
790.0, 0.000565514
792.0, 0.000546546
794.0, 0.000830103
796.0, 0.00109283
798.0, 0.000725602
800.0, 0.000880048
802.0, 0.00118078
804.0, 0.0011307
806.0, 0.000920862
808.0, 0.00145653
810.0, 0.00139645
812.0, 0.00104697
814.0, 0.00130362
816.0, 0.00131988
818.0, 0.00159765
820.0, 0.00159131
822.0, 0.00120982
824.0, 0.00132472
826.0, 0.00137826
828.0, 0.00108586
830.0, 0.00118618
832.0, 0.000699094
834.0, 0.000767815
836.0, 0.00123383
838.0, 0.00089623
840.0, 0.000461913
842.0, 0.000693498
844.0, 0.000287143
846.0, 0.000515874
848.0, 0.000424616
850.0, 0.000519344
852.0, 0.000850442
854.0, 0.000658348
856.0, 0.000704102
858.0, 0.00035409
860.0, 0.000633126
862.0, 0.000704882
864.0, 0.000299715
866.0, 9.41505e-05
868.0, 0.000139745
870.0, 7.66068e-05
872.0, 0.000334625
874.0, 0.000161892
876.0, 0.000381285
878.0, 0.000494153
880.0, 2.84826e-05
882.0, 0.000202536
884.0, 4.00152e-05
886.0, 0.000243943
888.0, 0.000100598
890.0, 0.000151881
892.0, 0.000279977
894.0, 0.0002962
896.0, 3.3913e-05
898.0, 0.000265804
900.0, 0.000133272
902.0, 0.000315918
904.0, 8.21735e-05
906.0, 2.63366e-05
908.0, 0.000214283
910.0, 0.000117763
912.0, 0.000288757
914.0, 0.000275412
916.0, 0.000721916
918.0, 0.000744118
920.0, 0.00157089
922.0, 0.00212818
924.0, 0.00353662
926.0, 0.00479604
928.0, 0.00747103
930.0, 0.0101111
932.0, 0.0134464
934.0, 0.0164253
936.0, 0.0193969
938.0, 0.0233358
940.0, 0.0247791
942.0, 0.0271668
944.0, 0.0271608
946.0, 0.0264044
948.0, 0.0260632
950.0, 0.0257315
952.0, 0.025856
954.0, 0.0254626
956.0, 0.0260827
958.0, 0.0259543
960.0, 0.0265693
962.0, 0.0258457
964.0, 0.0266729
966.0, 0.0268031
968.0, 0.026321
970.0, 0.0270355
972.0, 0.0277287
974.0, 0.0265946
976.0, 0.0271985
978.0, 0.0275052
980.0, 0.0262246
982.0, 0.0262406
984.0, 0.0247995
986.0, 0.0224699
988.0, 0.0206749
990.0, 0.0172401
992.0, 0.0149618
994.0, 0.0118392
996.0, 0.0102709
998.0, 0.00864527
1000.0, 0.00737451
1002.0, 0.00681085
1004.0, 0.00653662
1006.0, 0.00543693
1008.0, 0.00450219
1010.0, 0.00491708
1012.0, 0.00419137
1014.0, 0.00399956
1016.0, 0.00335252
1018.0, 0.00349251
1020.0, 0.00267881
1022.0, 0.00238457
1024.0, 0.00233292
1026.0, 0.00208496
1028.0, 0.0018158
1030.0, 0.00160248
1032.0, 0.00154498
1034.0, 0.00103939
1036.0, 0.000589504
1038.0, 0.000495431
1040.0, 0.000177624
1042.0, 7.15591e-05
1044.0, 0.000203159
1046.0, 3.4979e-05
1048.0, 0.000124942
1050.0, 0.000207852
1052.0, 0.000350043
1054.0, 5.81846e-05
1056.0, 0.000320739
1058.0, 1.01431e-05
1060.0, 9.20776e-05
1062.0, 0.000172384
1064.0, 0.000159677
1066.0, 5.21116e-05
1068.0, 0.000223111
1070.0, 0.000126749
1072.0, 0.000443492
1074.0, 0.000293109
1076.0, 0.000236964
1078.0, 0.000414065
1080.0, 0.000148752
1082.0, 0.00062285
1084.0, 0.000630133
1086.0, 0.000669458
1088.0, 0.000422463
1090.0, 0.000435181
1092.0, 0.000685361
1094.0, 0.000331383
1096.0, 0.000551405
1098.0, 0.000352135
1100.0, 0.000577984
1102.0, 0.000966796
1104.0, 0.000691936
1106.0, 0.000918377
1108.0, 0.000660944
1110.0, 0.000483911
1112.0, 0.00051953
1114.0, 0.000910036
1116.0, 0.000396781
1118.0, 0.000288059
1120.0, 0.000616167
1122.0, 0.00049627
1124.0, 0.000276029
1126.0, 0.000649725
1128.0, 0.000468505
1130.0, 0.00128096
1132.0, 0.00205835
1134.0, 0.000388604
1136.0, 0.000560037
1138.0, 0.000330603
1140.0, 0.000234635
1142.0, 0.000590812
1144.0, 0.000393152
1146.0, 0.000377264
1148.0, 0.000249467
1150.0, 0.000481149
1152.0, 0.00011158
1154.0, 0.000183155
1156.0, 0.000452329
1158.0, 0.000187689
1160.0, 0.000206952
1162.0, 0.000169314
1164.0, 0.000370875
1166.0, 0.00028591
1168.0, 0.000124801
1170.0, 0.000611248
1172.0, 0.000275192
1174.0, 0.000379147
1176.0, 0.000197137
1178.0, 0.000135466
1180.0, 0.000145988
1182.0, 0.000207395
1184.0, 0.000105236
1186.0, 0.000262821
1188.0, 0.000458744
1190.0, 8.82134e-06
1192.0, 0.000317118
1194.0, 0.000212125
1196.0, 0.000471187
1198.0, 5.59636e-05
1200.0, 1.05568e-05
1202.0, 0.00026637
1204.0, 0.000269559
1206.0, 3.90866e-06
1208.0, 0.000102939
1210.0, 2.51963e-05
1212.0, 0.000195193
1214.0, 0.000359851
1216.0, 0.000494012
1218.0, 1.80137e-05
1220.0, 4.57122e-05
1222.0, 0.000279106
1224.0, 0.000482946
1226.0, 0.000142999
1228.0, 0.000145935
1230.0, 0.000233597
1232.0, 0.000258295
1234.0, 0.000210477
1236.0, 0.000204509
1238.0, 0.000366821
1240.0, 0.00030822
1242.0, 5.99203e-05
1244.0, 0.000377277
1246.0, 0.000157975
1248.0, 5.90111e-05
1250.0, 0.000275544
1252.0, 0.00035059
1254.0, 0.000434131
1256.0, 0.000100083
1258.0, 0.0002176
1260.0, 0.000464267
1262.0, 0.000303354
1264.0, 6.92472e-05
1266.0, 5.14662e-05
1268.0, 0.000177429
1270.0, 0.000197968
1272.0, 0.000345148
1274.0, 1.56671e-05
1276.0, 0.000471191
1278.0, 0.000269065
1280.0, 0.000186579
1282.0, 0.000377065
1284.0, 0.000385415
1286.0, 0.000142236
1288.0, 0.000689134
1290.0, 0.000213498
1292.0, 2.44605e-05
1294.0, 0.000189134
1296.0, 0.000201888
1298.0, 0.000223758
1300, 0.0
1302, 0.0
1304, 0.0
1306, 0.0
1308, 0.0
1310, 0.0
1312, 0.0
1314, 0.0
1316, 0.0
1318, 0.0
1320, 0.0
1322, 0.0
1324, 0.0
1326, 0.0
1328, 0.0
1330, 0.0
1332, 0.0
1334, 0.0
1336, 0.0
1338, 0.0
1340, 0.0
1342, 0.0
1344, 0.0
1346, 0.0
1348, 0.0
1350, 0.0
1352, 0.0
1354, 0.0
1356, 0.0
1358, 0.0
1360, 0.0
1362, 0.0
1364, 0.0
1366, 0.0
1368, 0.0
1370, 0.0
1372, 0.0
1374, 0.0
1376, 0.0
1378, 0.0
1380, 0.0
1382, 0.0
1384, 0.0
1386, 0.0
1388, 0.0
1390, 0.0
1392, 0.0
1394, 0.0
1396, 0.0
1398, 0.0
1400, 0.0
1402, 0.0
1404, 0.0
1406, 0.0
1408, 0.0
1410, 0.0
1412, 0.0
1414, 0.0
1416, 0.0
1418, 0.0
1420, 0.0
1422, 0.0
1424, 0.0
1426, 0.0
1428, 0.0
1430, 0.0
1432, 0.0
1434, 0.0
1436, 0.0
1438, 0.0
1440, 0.0
1442, 0.0
1444, 0.0
1446, 0.0
1448, 0.0
1450, 0.0
1452, 0.0
1454, 0.0
1456, 0.0
1458, 0.0
1460, 0.0
1462, 0.0
1464, 0.0
1466, 0.0
1468, 0.0
1470, 0.0
1472, 0.0
1474, 0.0
1476, 0.0
1478, 0.0
1480, 0.0
1482, 0.0
1484, 0.0
1486, 0.0
1488, 0.0
1490, 0.0
1492, 0.0
1494, 0.0
1496, 0.0
1498, 0.0
1500, 0.0
1502, 0.0
1504, 0.0
1506, 0.0
1508, 0.0
1510, 0.0
1512, 0.0
1514, 0.0
1516, 0.0
1518, 0.0
1520, 0.0
1522, 0.0
1524, 0.0
1526, 0.0
1528, 0.0
1530, 0.0
1532, 0.0
1534, 0.0
1536, 0.0
1538, 0.0
1540, 0.0
1542, 0.0
1544, 0.0
1546, 0.0
1548, 0.0
1550, 0.0
1552, 0.0
1554, 0.0
1556, 0.0
1558, 0.0
1560, 0.0
1562, 0.0
1564, 0.0
1566, 0.0
1568, 0.0
1570, 0.0
1572, 0.0
1574, 0.0
1576, 0.0
1578, 0.0
1580, 0.0
1582, 0.0
1584, 0.0
1586, 0.0
1588, 0.0
1590, 0.0
1592, 0.0
1594, 0.0
1596, 0.0
1598, 0.0
1599, 0.0