File: raw data/Dataset_2/Silicon/Silicon__R050145-3__Raman__514__45__ccw__Raman_Data_Processed__5982.txt
30, 0.0
32, 0.0
34, 0.0
36, 0.0
38, 0.0
40, 0.0
42, 0.0
44, 0.0
46, 0.0
48, 0.0
50, 0.0
52, 0.0
54, 0.0
56, 0.0
58, 0.0
60, 0.0
62, 0.0
64, 0.0
66, 0.0
68, 0.0
70, 0.0
72, 0.0
74, 0.0
76, 0.0
78, 0.0
80, 0.0
82, 0.0
84, 0.0
86, 0.0
88, 0.0
90, 0.0
92, 0.0
94, 0.0
96, 0.0
98, 0.0
100, 0.0
102, 0.0
104, 0.0
106, 0.0
108, 0.0
110, 0.0
112, 0.0
114, 0.0
116.0, 5.87415e-06
118.0, 0.00299625
120.0, 0.00854369
122.0, 0.0070578
124.0, 0.00386823
126.0, 0.00263333
128.0, 0.0069942
130.0, 0.0013942
132.0, 0.00799374
134.0, 0.00867597
136.0, 0.0180681
138.0, 0.025193
140.0, 0.0295497
142.0, 0.0281318
144.0, 0.0307011
146.0, 0.026607
148.0, 0.0193455
150.0, 0.0182443
152.0, 0.0100201
154.0, 0.0119653
156.0, 0.00965003
158.0, 0.00642662
160.0, 0.00360823
162.0, 0.00312663
164.0, 0.00349965
166.0, 0.0033517
168.0, 0.00295787
170.0, 0.00441216
172.0, 0.00509399
174.0, 0.00423057
176.0, 0.00731259
178.0, 0.00617803
180.0, 0.00399959
182.0, 0.00341291
184.0, 0.00496416
186.0, 0.0061383
188.0, 0.00534801
190.0, 0.00576465
192.0, 0.00361115
194.0, 0.00345186
196.0, 0.00469195
198.0, 0.0043571
200.0, 0.00358392
202.0, 0.00207069
204.0, 0.00232756
206.0, 0.000321485
208.0, 0.0007323
210.0, 0.00059949
212.0, 0.001424
214.0, 0.000915852
216.0, 0.000977541
218.0, 0.000780232
220.0, 0.00229645
222.0, 0.001664
224.0, 0.00123892
226.0, 0.00103621
228.0, 0.0024022
230.0, 0.000855504
232.0, 0.000459232
234.0, 0.00241424
236.0, 0.000745768
238.0, 0.000886588
240.0, 0.000668848
242.0, 0.000604214
244.0, 0.00176772
246.0, 0.00167996
248.0, 0.00209243
250.0, 0.00220107
252.0, 0.00167883
254.0, 0.000405466
256.0, 0.000997071
258.0, 0.000719788
260.0, 0.000839511
262.0, 0.000678891
264.0, 0.0027068
266.0, 0.0057129
268.0, 0.00304795
270.0, 0.00118983
272.0, 0.000657602
274.0, 0.00248052
276.0, 0.00310138
278.0, 0.00156706
280.0, 0.00341972
282.0, 0.00471711
284.0, 0.00487806
286.0, 0.00853173
288.0, 0.0111847
290.0, 0.0147574
292.0, 0.0149938
294.0, 0.0168486
296.0, 0.0175645
298.0, 0.019334
300.0, 0.021055
302.0, 0.0219994
304.0, 0.0225002
306.0, 0.0229213
308.0, 0.0230601
310.0, 0.0227138
312.0, 0.0222224
314.0, 0.0217354
316.0, 0.0208535
318.0, 0.0216514
320.0, 0.0213914
322.0, 0.0208566
324.0, 0.0222193
326.0, 0.0226715
328.0, 0.0211037
330.0, 0.0208248
332.0, 0.0206204
334.0, 0.0204442
336.0, 0.0204208
338.0, 0.0203004
340.0, 0.0204912
342.0, 0.020973
344.0, 0.0197859
346.0, 0.0200674
348.0, 0.019463
350.0, 0.0194765
352.0, 0.0205196
354.0, 0.0208973
356.0, 0.0198151
358.0, 0.0184086
360.0, 0.0197168
362.0, 0.0196133
364.0, 0.020628
366.0, 0.0184065
368.0, 0.0190574
370.0, 0.0188451
372.0, 0.0184367
374.0, 0.0181998
376.0, 0.0190197
378.0, 0.0169626
380.0, 0.0162057
382.0, 0.0160379
384.0, 0.0163616
386.0, 0.0159918
388.0, 0.0158477
390.0, 0.013749
392.0, 0.0140118
394.0, 0.0139771
396.0, 0.0145908
398.0, 0.0137925
400.0, 0.0141426
402.0, 0.0135321
404.0, 0.0122035
406.0, 0.0127199
408.0, 0.0135759
410.0, 0.0149959
412.0, 0.0132881
414.0, 0.0123971
416.0, 0.0137218
418.0, 0.0146124
420.0, 0.0149603
422.0, 0.0156788
424.0, 0.015546
426.0, 0.0161127
428.0, 0.0164239
430.0, 0.0175691
432.0, 0.0168854
434.0, 0.018827
436.0, 0.0194812
438.0, 0.0165893
440.0, 0.0186926
442.0, 0.016602
444.0, 0.0174044
446.0, 0.0169168
448.0, 0.0172536
450.0, 0.0181333
452.0, 0.0189462
454.0, 0.0197936
456.0, 0.0189461
458.0, 0.018567
460.0, 0.0180809
462.0, 0.017837
464.0, 0.0192764
466.0, 0.0203911
468.0, 0.0209575
470.0, 0.0212282
472.0, 0.0208486
474.0, 0.0214895
476.0, 0.0221257
478.0, 0.0218719
480.0, 0.022391
482.0, 0.0226459
484.0, 0.0229596
486.0, 0.023624
488.0, 0.0241919
490.0, 0.0242418
492.0, 0.0257117
494.0, 0.026467
496.0, 0.0283939
498.0, 0.0285613
500.0, 0.0310376
502.0, 0.0327981
504.0, 0.0362113
506.0, 0.0446212
508.0, 0.0521437
510.0, 0.0670176
512.0, 0.0924106
514.0, 0.147513
516.0, 0.267432
518.0, 0.497156
520.0, 0.823983
522.0, 0.995355
524.0, 0.837066
526.0, 0.583014
528.0, 0.341108
530.0, 0.197338
532.0, 0.121222
534.0, 0.0785353
536.0, 0.0566982
538.0, 0.0439365
540.0, 0.0340551
542.0, 0.0283719
544.0, 0.0240808
546.0, 0.0189145
548.0, 0.0191976
550.0, 0.0158009
552.0, 0.0144735
554.0, 0.0129417
556.0, 0.0114389
558.0, 0.00977638
560.0, 0.0106294
562.0, 0.0101876
564.0, 0.0100044
566.0, 0.00803593
568.0, 0.00755823
570.0, 0.00729022
572.0, 0.00590308
574.0, 0.00394931
576.0, 0.00638426
578.0, 0.00677028
580.0, 0.00468162
582.0, 0.00372238
584.0, 0.00393072
586.0, 0.00278936
588.0, 0.00277835
590.0, 0.00178291
592.0, 0.0014621
594.0, 0.00113953
596.0, 0.00109206
598.0, 0.00169945
600.0, 0.00227952
602.0, 0.00158251
604.0, 0.000770571
606.0, 0.00190596
608.0, 0.00155678
610.0, 0.00298048
612.0, 0.00226976
614.0, 0.00338226
616.0, 0.00400484
618.0, 0.00420462
620.0, 0.00443291
622.0, 0.00530963
624.0, 0.00512702
626.0, 0.0044601
628.0, 0.00302152
630.0, 0.00289566
632.0, 0.00192666
634.0, 0.00202639
636.0, 0.00202651
638.0, 0.00157513
640.0, 0.00129373
642.0, 0.00187491
644.0, 0.00128074
646.0, 0.00135468
648.0, 0.00239053
650.0, 0.00175201
652.0, 0.00159516
654.0, 0.00174868
656.0, 0.000998968
658.0, 0.00137712
660.0, 0.00109136
662.0, 0.00238775
664.0, 0.00288498
666.0, 0.00214968
668.0, 0.00151549
670.0, 0.00108004
672.0, 0.00260114
674.0, 0.00280441
676.0, 0.0021057
678.0, 0.000495337
680.0, 0.00300678
682.0, 0.00113612
684.0, 0.00197655
686.0, 0.000906777
688.0, 0.000474541
690.0, 0.000740759
692.0, 0.0006313
694.0, 0.000516189
696.0, 0.000268009
698.0, 0.000375978
700.0, 9.35918e-05
702.0, 0.0008638
704.0, 0.000746278
706.0, 0.00179807
708.0, 0.00026927
710.0, 0.000494054
712.0, 0.000415039
714.0, 0.00174242
716.0, 0.000285511
718.0, 0.000502585
720.0, 0.000594779
722.0, 0.000426413
724.0, 0.000492743
726.0, 0.000289048
728.0, 0.000514045
730.0, 4.80417e-05
732.0, 0.0020547
734.0, 0.000710495
736.0, 0.00135754
738.0, 0.00076184
740.0, 0.000256492
742.0, 0.000888035
744.0, 0.000753434
746.0, 0.000988551
748.0, 0.000751561
750.0, 0.000995184
752.0, 0.00061937
754.0, 0.000362277
756.0, 0.000288286
758.0, 0.000776499
760.0, 0.000321253
762.0, 0.000589088
764.0, 0.000393788
766.0, 0.000436101
768.0, 0.000257987
770.0, 0.000954284
772.0, 0.000623951
774.0, 0.000772428
776.0, 0.00087204
778.0, 0.00100296
780.0, 0.00107187
782.0, 0.000487844
784.0, 0.00103531
786.0, 0.000691371
788.0, 0.00180515
790.0, 0.00130414
792.0, 0.0019635
794.0, 0.00103768
796.0, 0.00190412
798.0, 0.00176663
800.0, 0.000136425
802.0, 0.00043276
804.0, 0.000672129
806.0, 0.00147435
808.0, 0.00189485
810.0, 0.00256459
812.0, 0.0025389
814.0, 0.0025517
816.0, 0.00144528
818.0, 0.00302198
820.0, 0.00257581
822.0, 0.00246394
824.0, 0.00302252
826.0, 0.00329252
828.0, 0.00371317
830.0, 0.0021368
832.0, 0.00218962
834.0, 0.0021514
836.0, 0.0028443
838.0, 0.00304804
840.0, 0.00272598
842.0, 0.00206926
844.0, 0.00210251
846.0, 0.0016298
848.0, 0.00188779
850.0, 0.00347809
852.0, 0.00338887
854.0, 0.00318162
856.0, 0.00225201
858.0, 0.00147229
860.0, 0.00153365
862.0, 0.000525174
864.0, 0.00214478
866.0, 0.00300996
868.0, 0.00241517
870.0, 0.00171733
872.0, 0.00178035
874.0, 0.00252599
876.0, 0.00234536
878.0, 0.00269105
880.0, 0.0023521
882.0, 0.00272551
884.0, 0.00207339
886.0, 0.00128359
888.0, 0.00100961
890.0, 0.00125329
892.0, 0.00121939
894.0, 0.00295027
896.0, 0.00302842
898.0, 0.00393231
900.0, 0.00321344
902.0, 0.00279183
904.0, 0.00265332
906.0, 0.00296024
908.0, 0.00362591
910.0, 0.00393263
912.0, 0.00405229
914.0, 0.00364192
916.0, 0.00244848
918.0, 0.00424978
920.0, 0.0050128
922.0, 0.00472409
924.0, 0.00431852
926.0, 0.0051403
928.0, 0.00666076
930.0, 0.00779076
932.0, 0.011074
934.0, 0.0146648
936.0, 0.0171792
938.0, 0.0196736
940.0, 0.0229949
942.0, 0.0255676
944.0, 0.0291829
946.0, 0.0300197
948.0, 0.0301301
950.0, 0.0309462
952.0, 0.0317243
954.0, 0.0327396
956.0, 0.0313068
958.0, 0.0322373
960.0, 0.0327922
962.0, 0.0329311
964.0, 0.0331882
966.0, 0.032964
968.0, 0.0332644
970.0, 0.0344636
972.0, 0.0346276
974.0, 0.0344762
976.0, 0.0346411
978.0, 0.0342583
980.0, 0.0344881
982.0, 0.0342879
984.0, 0.0339021
986.0, 0.0328149
988.0, 0.0324449
990.0, 0.0303426
992.0, 0.0273098
994.0, 0.0244018
996.0, 0.0216993
998.0, 0.0201399
1000.0, 0.0164918
1002.0, 0.0155239
1004.0, 0.0134851
1006.0, 0.0123379
1008.0, 0.0113225
1010.0, 0.0110933
1012.0, 0.0104065
1014.0, 0.00968664
1016.0, 0.00937817
1018.0, 0.00871334
1020.0, 0.00927636
1022.0, 0.00810971
1024.0, 0.00802036
1026.0, 0.00743636
1028.0, 0.00770118
1030.0, 0.0068166
1032.0, 0.00744661
1034.0, 0.00522298
1036.0, 0.00487925
1038.0, 0.00555628
1040.0, 0.0049354
1042.0, 0.00486001
1044.0, 0.00551312
1046.0, 0.00401193
1048.0, 0.00133446
1050.0, 0.00409536
1052.0, 0.00376328
1054.0, 0.00375442
1056.0, 0.00389769
1058.0, 0.00407484
1060.0, 0.00393985
1062.0, 0.0034346
1064.0, 0.00407573
1066.0, 0.00322007
1068.0, 0.00270405
1070.0, 0.00359999
1072.0, 0.00282053
1074.0, 0.0027298
1076.0, 0.0024337
1078.0, 0.00246302
1080.0, 0.00353763
1082.0, 0.00306604
1084.0, 0.00150719
1086.0, 0.00289863
1088.0, 0.00210671
1090.0, 0.00230917
1092.0, 0.00304635
1094.0, 0.00255163
1096.0, 0.00249637
1098.0, 0.00335103
1100.0, 0.00245964
1102.0, 0.00219307
1104.0, 0.000595513
1106.0, 0.002559
1108.0, 0.00235523
1110.0, 0.00226584
1112.0, 0.0024521
1114.0, 0.00175842
1116.0, 0.00225183
1118.0, 0.00121031
1120.0, 0.00215209
1122.0, 0.00834159
1124.0, 0.00787733
1126.0, 0.00328772
1128.0, 0.0014487
1130.0, 0.00160989
1132.0, 0.00174674
1134.0, 0.000351841
1136.0, 0.000648915
1138.0, 0.00073536
1140.0, 0.00116139
1142.0, 0.000419051
1144.0, 0.000233814
1146.0, 0.000419135
1148.0, 0.000894503
1150.0, 0.00102868
1152.0, 0.00102045
1154.0, 0.00042546
1156.0, 0.00053793
1158.0, 0.000478322
1160.0, 0.000146034
1162.0, 2.13064e-05
1164.0, 0.000234495
1166.0, 0.000191393
1168.0, 0.000899968
1170.0, 0.000660469
1172.0, 0.00018673
1174.0, 0.000115119
1176.0, 0.000642028
1178.0, 0.000236199
1180.0, 0.000160572
1182.0, 0.00044462
1184.0, 0.000503589
1186.0, 9.43308e-05
1188.0, 0.00106634
1190.0, 0.00126134
1192.0, 0.000300315
1194.0, 0.000634889
1196.0, 0.00172079
1198.0, 0.000601358
1200.0, 0.000619335
1202.0, 0.000243426
1204.0, 0.000191736
1206.0, 0.00149877
1208.0, 0.00182478
1210.0, 0.00176498
1212.0, 0.00158091
1214.0, 0.00136956
1216.0, 0.00401986
1218.0, 0.00450323
1220.0, 0.00779519
1222.0, 0.00779973
1224.0, 0.0100606
1226.0, 0.00795418
1228.0, 0.00761258
1230.0, 0.00794491
1232.0, 0.0104268
1234.0, 0.00855339
1236.0, 0.00116936
1238.0, 0.000578062
1240.0, 0.00224274
1242.0, 0.0019508
1244.0, 0.00138735
1246.0, 0.000515423
1248.0, 0.000832323
1250.0, 0.0019754
1252.0, 0.00046798
1254.0, 0.00110687
1256.0, 0.00114987
1258.0, 0.000261063
1260.0, 0.000109963
1262.0, 0.00155982
1264.0, 0.00235336
1266.0, 0.00119077
1268.0, 0.00122142
1270.0, 0.000643849
1272.0, 0.000746685
1274.0, 0.00122925
1276.0, 0.00172141
1278.0, 0.000981057
1280.0, 0.000419519
1282.0, 0.000563059
1284.0, 0.000902356
1286.0, 0.00105572
1288.0, 0.00162839
1290.0, 0.00187471
1292.0, 0.00236089
1294.0, 0.00153677
1296.0, 0.00123615
1298.0, 0.0009683
1300.0, 0.00198766
1302.0, 0.00113101
1304.0, 0.00157493
1306.0, 0.00128985
1308.0, 0.000106673
1310.0, 9.85311e-05
1312.0, 0.000970769
1314.0, 0.00116807
1316.0, 0.00126677
1318.0, 0.000867915
1320.0, 0.000106221
1322.0, 0.00123782
1324.0, 0.000853233
1326.0, 0.000846653
1328.0, 0.000536099
1330.0, 0.000818032
1332.0, 0.00095988
1334.0, 0.000210485
1336.0, 0.00104109
1338.0, 0.00126947
1340.0, 0.000333941
1342.0, 0.00142004
1344.0, 0.00212502
1346.0, 0.00131623
1348.0, 0.00143073
1350.0, 0.00203925
1352.0, 0.00228776
1354.0, 0.00187962
1356.0, 0.000840841
1358.0, 0.0013178
1360.0, 0.00154873
1362.0, 0.00158911
1364.0, 0.00136127
1366.0, 0.00108873
1368.0, 0.00190304
1370.0, 0.00259461
1372.0, 0.00204595
1374.0, 0.00128816
1376.0, 0.000392289
1378.0, 0.00248681
1380.0, 0.001396
1382.0, 0.00325532
1384.0, 0.00173474
1386.0, 0.00257377
1388.0, 0.00117633
1390.0, 0.00242446
1392.0, 0.00394771
1394.0, 0.00282166
1396.0, 0.00140417
1398.0, 0.00132347
1400.0, 0.00190413
1402.0, 0.00142198
1404.0, 0.00231951
1406.0, 0.00205784
1408.0, 0.000699932
1410.0, 0.00168266
1412.0, 0.00249789
1414.0, 0.00238874
1416.0, 0.00183941
1418.0, 0.00112182
1420.0, 0.000828067
1422.0, 0.00202657
1424.0, 0.00239315
1426.0, 0.00294059
1428.0, 0.00195218
1430.0, 0.000605899
1432.0, 0.0026603
1434.0, 0.00169638
1436.0, 0.00108992
1438.0, 0.00340107
1440.0, 0.000944961
1442.0, 0.00186958
1444.0, 0.00289175
1446.0, 0.00233006
1448.0, 0.0038639
1450.0, 0.000921254
1452.0, 0.00177235
1454.0, 0.00176504
1456.0, 0.00132378
1458.0, 0.00257363
1460.0, 0.00207497
1462.0, 0.00238011
1464.0, 0.0023614
1466.0, 0.00094118
1468.0, 0.00199778
1470.0, 0.00309594
1472.0, 0.00274045
1474.0, 0.00153906
1476.0, 0.000650446
1478.0, 0.00120067
1480.0, 0.00144559
1482.0, 0.0023514
1484.0, 0.00237695
1486.0, 0.0019697
1488.0, 0.00159801
1490.0, 0.000987575
1492.0, 0.000916762
1494.0, 0.000662425
1496.0, 0.000722093
1498.0, 0.00113967
1500.0, 0.00128154
1502.0, 0.000659938
1504.0, 0.000293817
1506.0, 0.000800835
1508.0, 0.00142458
1510.0, 0.00173372
1512.0, 0.00129108
1514.0, 0.000622783
1516.0, 0.0024191
1518.0, 9.90328e-05
1520, 0.0
1522, 0.0
1524, 0.0
1526, 0.0
1528, 0.0
1530, 0.0
1532, 0.0
1534, 0.0
1536, 0.0
1538, 0.0
1540, 0.0
1542, 0.0
1544, 0.0
1546, 0.0
1548, 0.0
1550, 0.0
1552, 0.0
1554, 0.0
1556, 0.0
1558, 0.0
1560, 0.0
1562, 0.0
1564, 0.0
1566, 0.0
1568, 0.0
1570, 0.0
1572, 0.0
1574, 0.0
1576, 0.0
1578, 0.0
1580, 0.0
1582, 0.0
1584, 0.0
1586, 0.0
1588, 0.0
1590, 0.0
1592, 0.0
1594, 0.0
1596, 0.0
1598, 0.0
1599, 0.0