File: raw data/Dataset_2/Silicon/Silicon__R050145-3__Raman__514__0__ccw__Raman_Data_Processed__5980.txt
30, 0.0
32, 0.0
34, 0.0
36, 0.0
38, 0.0
40, 0.0
42, 0.0
44, 0.0
46, 0.0
48, 0.0
50, 0.0
52, 0.0
54, 0.0
56, 0.0
58, 0.0
60, 0.0
62, 0.0
64, 0.0
66, 0.0
68, 0.0
70, 0.0
72, 0.0
74, 0.0
76, 0.0
78, 0.0
80, 0.0
82, 0.0
84, 0.0
86, 0.0
88, 0.0
90, 0.0
92, 0.0
94, 0.0
96, 0.0
98, 0.0
100, 0.0
102, 0.0
104, 0.0
106, 0.0
108, 0.0
110, 0.0
112, 0.0
114, 0.0
116.0, 0.0148691
118.0, 0.00637737
120.0, 0.0303243
122.0, 0.0203416
124.0, 0.0167209
126.0, 0.0145444
128.0, 0.00419915
130.0, 0.0163151
132.0, 0.032626
134.0, 0.0328774
136.0, 0.0423314
138.0, 0.0534068
140.0, 0.0715194
142.0, 0.0731604
144.0, 0.0728261
146.0, 0.0580893
148.0, 0.0485855
150.0, 0.0454509
152.0, 0.0381349
154.0, 0.0407845
156.0, 0.0377526
158.0, 0.0151834
160.0, 0.00611152
162.0, 0.0202015
164.0, 0.0156509
166.0, 0.00848209
168.0, 0.0122651
170.0, 0.011739
172.0, 0.0164524
174.0, 0.0193416
176.0, 0.0206323
178.0, 0.0217982
180.0, 0.0182435
182.0, 0.0151995
184.0, 0.0173652
186.0, 0.0219386
188.0, 0.0235762
190.0, 0.0212625
192.0, 0.0163555
194.0, 0.0184329
196.0, 0.0181892
198.0, 0.019565
200.0, 0.0179242
202.0, 0.0129343
204.0, 0.0136013
206.0, 0.0120198
208.0, 0.00712068
210.0, 0.0103741
212.0, 0.00689209
214.0, 0.0113602
216.0, 0.00346584
218.0, 0.00220888
220.0, 0.00250401
222.0, 0.00187296
224.0, 0.00267077
226.0, 0.0024003
228.0, 0.00140642
230.0, 0.00291942
232.0, 0.00227719
234.0, 0.00490278
236.0, 0.00153293
238.0, 0.00230091
240.0, 0.00217575
242.0, 0.00463328
244.0, 0.00169333
246.0, 0.00231403
248.0, 0.00624973
250.0, 0.00619831
252.0, 0.00501012
254.0, 0.00215624
256.0, 0.00079842
258.0, 9.77525e-05
260.0, 0.00189823
262.0, 0.00254699
264.0, 0.00338878
266.0, 0.00305169
268.0, 0.00423023
270.0, 0.00257612
272.0, 0.00750186
274.0, 0.00720004
276.0, 0.00908711
278.0, 0.0069317
280.0, 0.0117365
282.0, 0.016639
284.0, 0.0253256
286.0, 0.0309966
288.0, 0.0334435
290.0, 0.0359647
292.0, 0.0428376
294.0, 0.0520106
296.0, 0.0595648
298.0, 0.0664304
300.0, 0.0708681
302.0, 0.0733635
304.0, 0.0736811
306.0, 0.0708938
308.0, 0.0668518
310.0, 0.0651722
312.0, 0.0668376
314.0, 0.0655607
316.0, 0.0584374
318.0, 0.0602006
320.0, 0.057859
322.0, 0.0529691
324.0, 0.0557678
326.0, 0.0556128
328.0, 0.0544593
330.0, 0.0553307
332.0, 0.0579651
334.0, 0.0546581
336.0, 0.0528682
338.0, 0.0522526
340.0, 0.0498471
342.0, 0.0476527
344.0, 0.0452933
346.0, 0.0477102
348.0, 0.0402988
350.0, 0.0464265
352.0, 0.0447995
354.0, 0.0465158
356.0, 0.0526987
358.0, 0.0411166
360.0, 0.0453729
362.0, 0.0443946
364.0, 0.0430339
366.0, 0.0435463
368.0, 0.0422868
370.0, 0.0461816
372.0, 0.0464042
374.0, 0.0453504
376.0, 0.0452111
378.0, 0.0409752
380.0, 0.0377987
382.0, 0.0361088
384.0, 0.0372513
386.0, 0.0349394
388.0, 0.0353439
390.0, 0.03126
392.0, 0.0375404
394.0, 0.0331298
396.0, 0.0365284
398.0, 0.0318319
400.0, 0.0301473
402.0, 0.0279567
404.0, 0.0325322
406.0, 0.0334436
408.0, 0.0366333
410.0, 0.032497
412.0, 0.0358257
414.0, 0.0316849
416.0, 0.0344321
418.0, 0.0354404
420.0, 0.0380933
422.0, 0.039823
424.0, 0.0376751
426.0, 0.0372976
428.0, 0.0384668
430.0, 0.0367506
432.0, 0.0473824
434.0, 0.0626013
436.0, 0.0660811
438.0, 0.0715979
440.0, 0.0594772
442.0, 0.0426973
444.0, 0.0380376
446.0, 0.0370879
448.0, 0.0388102
450.0, 0.0389812
452.0, 0.0367092
454.0, 0.0349517
456.0, 0.0359491
458.0, 0.0363525
460.0, 0.0365592
462.0, 0.0371431
464.0, 0.0362213
466.0, 0.0365248
468.0, 0.0369775
470.0, 0.0376122
472.0, 0.0410986
474.0, 0.0417834
476.0, 0.042605
478.0, 0.041901
480.0, 0.0426134
482.0, 0.0440962
484.0, 0.0464416
486.0, 0.0426109
488.0, 0.0440023
490.0, 0.0485955
492.0, 0.0516986
494.0, 0.0515511
496.0, 0.0509179
498.0, 0.052643
500.0, 0.0509638
502.0, 0.055281
504.0, 0.0610514
506.0, 0.0626754
508.0, 0.0735263
510.0, 0.0954514
512.0, 0.129842
514.0, 0.204052
516.0, 0.392436
518.0, 0.70222
520.0, 0.944214
522.0, 0.942055
524.0, 0.711613
526.0, 0.464144
528.0, 0.289332
530.0, 0.210697
532.0, 0.127889
534.0, 0.0823517
536.0, 0.0613321
538.0, 0.0499983
540.0, 0.0411047
542.0, 0.0355137
544.0, 0.0307389
546.0, 0.0303295
548.0, 0.0288796
550.0, 0.0291394
552.0, 0.023465
554.0, 0.0246724
556.0, 0.0206784
558.0, 0.0185144
560.0, 0.020021
562.0, 0.0252175
564.0, 0.0186653
566.0, 0.0255498
568.0, 0.0206698
570.0, 0.0170119
572.0, 0.0146037
574.0, 0.0168245
576.0, 0.013965
578.0, 0.015523
580.0, 0.0130416
582.0, 0.0105693
584.0, 0.00936147
586.0, 0.0126338
588.0, 0.00628856
590.0, 0.00578883
592.0, 0.00993704
594.0, 0.00578102
596.0, 0.00967256
598.0, 0.00503124
600.0, 0.00458701
602.0, 0.00410453
604.0, 0.00805195
606.0, 0.00544491
608.0, 0.0113061
610.0, 0.00862467
612.0, 0.0104772
614.0, 0.00709035
616.0, 0.0124832
618.0, 0.0141978
620.0, 0.0113172
622.0, 0.0120326
624.0, 0.0140089
626.0, 0.0145124
628.0, 0.0138316
630.0, 0.00985536
632.0, 0.00794138
634.0, 0.0113911
636.0, 0.00665342
638.0, 0.00748522
640.0, 0.00552555
642.0, 0.0084923
644.0, 0.00862453
646.0, 0.010085
648.0, 0.010645
650.0, 0.010822
652.0, 0.0114396
654.0, 0.008227
656.0, 0.00620396
658.0, 0.00474763
660.0, 0.00859725
662.0, 0.0105823
664.0, 0.0102314
666.0, 0.01093
668.0, 0.00954491
670.0, 0.00654994
672.0, 0.00728606
674.0, 0.00740629
676.0, 0.00887951
678.0, 0.00753997
680.0, 0.0076049
682.0, 0.00670432
684.0, 0.00383239
686.0, 0.00847034
688.0, 0.00415116
690.0, 0.00306426
692.0, 0.00342197
694.0, 0.00211338
696.0, 0.00172902
698.0, 0.00193941
700.0, 0.00129455
702.0, 0.00392676
704.0, 0.00349625
706.0, 0.00122959
708.0, 0.00137436
710.0, 0.00362934
712.0, 0.00384784
714.0, 0.00328028
716.0, 0.00612244
718.0, 0.00429668
720.0, 0.00406846
722.0, 0.00212639
724.0, 0.00269608
726.0, 0.00365326
728.0, 0.00181708
730.0, 0.00319587
732.0, 0.00499051
734.0, 0.00202848
736.0, 0.00239856
738.0, 0.00178961
740.0, 0.00124044
742.0, 0.000810311
744.0, 0.00143855
746.0, 0.00204742
748.0, 0.00168369
750.0, 0.000982593
752.0, 0.00234508
754.0, 0.00264996
756.0, 0.00162106
758.0, 0.00124247
760.0, 0.00123271
762.0, 0.00277418
764.0, 0.00220514
766.0, 0.000853514
768.0, 0.0032432
770.0, 0.00322387
772.0, 0.00248305
774.0, 0.00224507
776.0, 0.00243648
778.0, 0.00117961
780.0, 0.00481784
782.0, 0.00330978
784.0, 0.00269987
786.0, 0.00395321
788.0, 0.00180711
790.0, 0.00494552
792.0, 0.00152905
794.0, 0.00641869
796.0, 0.00249392
798.0, 0.00637409
800.0, 0.00586338
802.0, 0.00538757
804.0, 0.00787752
806.0, 0.0079178
808.0, 0.00603054
810.0, 0.00931457
812.0, 0.00354785
814.0, 0.00572649
816.0, 0.00725148
818.0, 0.00345449
820.0, 0.00696182
822.0, 0.00699087
824.0, 0.00624798
826.0, 0.00827845
828.0, 0.0131464
830.0, 0.00583872
832.0, 0.00714128
834.0, 0.00877974
836.0, 0.0126847
838.0, 0.00614207
840.0, 0.00371659
842.0, 0.00460161
844.0, 0.0036663
846.0, 0.00286577
848.0, 0.000960801
850.0, 0.0041999
852.0, 0.00365516
854.0, 0.00736919
856.0, 0.00208874
858.0, 0.0026823
860.0, 0.00561122
862.0, 0.00854121
864.0, 0.00385735
866.0, 0.00287246
868.0, 0.00800199
870.0, 0.00516142
872.0, 0.00490865
874.0, 0.00265824
876.0, 0.00636479
878.0, 0.00876607
880.0, 0.00569424
882.0, 0.00649759
884.0, 0.00409309
886.0, 0.00402015
888.0, 0.00337845
890.0, 0.00632871
892.0, 0.00092734
894.0, 0.0049579
896.0, 0.0103282
898.0, 0.00553759
900.0, 0.00840323
902.0, 0.00863057
904.0, 0.00913854
906.0, 0.00885395
908.0, 0.00942512
910.0, 0.0104741
912.0, 0.00840191
914.0, 0.010918
916.0, 0.0103894
918.0, 0.0132627
920.0, 0.0107999
922.0, 0.0153876
924.0, 0.0166513
926.0, 0.0222746
928.0, 0.0256443
930.0, 0.0314666
932.0, 0.0406997
934.0, 0.054596
936.0, 0.0661394
938.0, 0.0730405
940.0, 0.0895636
942.0, 0.0986301
944.0, 0.10651
946.0, 0.108428
948.0, 0.11037
950.0, 0.109448
952.0, 0.11491
954.0, 0.114405
956.0, 0.117617
958.0, 0.117349
960.0, 0.118376
962.0, 0.116355
964.0, 0.121523
966.0, 0.117129
968.0, 0.117478
970.0, 0.117585
972.0, 0.11939
974.0, 0.12153
976.0, 0.12361
978.0, 0.124663
980.0, 0.124634
982.0, 0.12479
984.0, 0.124132
986.0, 0.118241
988.0, 0.121372
990.0, 0.105888
992.0, 0.0947439
994.0, 0.078344
996.0, 0.0706744
998.0, 0.0701778
1000.0, 0.0543272
1002.0, 0.0497864
1004.0, 0.0434276
1006.0, 0.0450617
1008.0, 0.0449954
1010.0, 0.0341301
1012.0, 0.0333091
1014.0, 0.0357745
1016.0, 0.0323335
1018.0, 0.0288046
1020.0, 0.0290307
1022.0, 0.0308199
1024.0, 0.0244381
1026.0, 0.0255988
1028.0, 0.0245523
1030.0, 0.0178404
1032.0, 0.0214412
1034.0, 0.0191258
1036.0, 0.0168973
1038.0, 0.0228332
1040.0, 0.0169402
1042.0, 0.0148256
1044.0, 0.0108047
1046.0, 0.00918898
1048.0, 0.0130674
1050.0, 0.0145304
1052.0, 0.0121358
1054.0, 0.0120806
1056.0, 0.0095301
1058.0, 0.0100515
1060.0, 0.014293
1062.0, 0.0109303
1064.0, 0.0154177
1066.0, 0.0110681
1068.0, 0.00729893
1070.0, 0.0101771
1072.0, 0.00909301
1074.0, 0.0113847
1076.0, 0.0102999
1078.0, 0.0108143
1080.0, 0.00964339
1082.0, 0.00869906
1084.0, 0.00942456
1086.0, 0.00689129
1088.0, 0.00885569
1090.0, 0.0093795
1092.0, 0.00989995
1094.0, 0.0111835
1096.0, 0.0073353
1098.0, 0.00810702
1100.0, 0.00717262
1102.0, 0.00708193
1104.0, 0.00404701
1106.0, 0.0103205
1108.0, 0.00788993
1110.0, 0.00770737
1112.0, 0.00792106
1114.0, 0.00628541
1116.0, 0.00867535
1118.0, 0.00627494
1120.0, 0.00877986
1122.0, 0.0108571
1124.0, 0.00410602
1126.0, 0.00638747
1128.0, 0.0098222
1130.0, 0.00980982
1132.0, 0.00725088
1134.0, 0.0061897
1136.0, 0.00176662
1138.0, 0.00597392
1140.0, 0.00270059
1142.0, 0.0021067
1144.0, 0.00331453
1146.0, 0.00245077
1148.0, 0.00168335
1150.0, 0.00128388
1152.0, 0.00300135
1154.0, 0.00330455
1156.0, 0.0026149
1158.0, 0.000974037
1160.0, 0.00114454
1162.0, 0.00144938
1164.0, 0.00400443
1166.0, 0.00461244
1168.0, 0.00263314
1170.0, 0.0011083
1172.0, 0.00109303
1174.0, 0.00103301
1176.0, 0.00200627
1178.0, 0.00299596
1180.0, 0.00278629
1182.0, 0.00438596
1184.0, 0.00478913
1186.0, 0.00335103
1188.0, 0.00521823
1190.0, 0.0058737
1192.0, 0.00392288
1194.0, 0.0039009
1196.0, 0.00482828
1198.0, 0.00404325
1200.0, 0.00434012
1202.0, 0.00461327
1204.0, 0.00284288
1206.0, 0.00345922
1208.0, 0.00497165
1210.0, 0.00735127
1212.0, 0.0089839
1214.0, 0.00555269
1216.0, 0.0033599
1218.0, 0.00429539
1220.0, 0.00848877
1222.0, 0.00761899
1224.0, 0.00496445
1226.0, 0.00677567
1228.0, 0.012674
1230.0, 0.0142615
1232.0, 0.0107516
1234.0, 0.00860297
1236.0, 0.00687257
1238.0, 0.0123663
1240.0, 0.0102555
1242.0, 0.00782623
1244.0, 0.00588347
1246.0, 0.00487277
1248.0, 0.0041686
1250.0, 0.00627525
1252.0, 0.00874443
1254.0, 0.00726015
1256.0, 0.00961337
1258.0, 0.00631662
1260.0, 0.00989794
1262.0, 0.00859766
1264.0, 0.00691259
1266.0, 0.00458709
1268.0, 0.0112108
1270.0, 0.00984172
1272.0, 0.00518685
1274.0, 0.00784622
1276.0, 0.00930057
1278.0, 0.00389499
1280.0, 0.0070104
1282.0, 0.0064363
1284.0, 0.00530697
1286.0, 0.0060869
1288.0, 0.00587175
1290.0, 0.00791256
1292.0, 0.0122005
1294.0, 0.00566819
1296.0, 0.0105918
1298.0, 0.0109986
1300.0, 0.00569335
1302.0, 0.00633556
1304.0, 0.00204154
1306.0, 0.00110348
1308.0, 0.00152857
1310.0, 0.00255825
1312.0, 0.001683
1314.0, 0.0034434
1316.0, 0.00247471
1318.0, 0.00301981
1320.0, 0.00270075
1322.0, 0.0018646
1324.0, 0.00223642
1326.0, 0.00237858
1328.0, 0.00402604
1330.0, 0.00233108
1332.0, 0.00144493
1334.0, 0.00407697
1336.0, 0.00863289
1338.0, 0.00727718
1340.0, 0.004687
1342.0, 0.00807281
1344.0, 0.00812807
1346.0, 0.00159117
1348.0, 0.00168518
1350.0, 0.00783322
1352.0, 0.00723245
1354.0, 0.00142482
1356.0, 0.00213767
1358.0, 0.0052111
1360.0, 0.00833275
1362.0, 0.00726184
1364.0, 0.00747693
1366.0, 0.00724241
1368.0, 0.00828255
1370.0, 0.00572382
1372.0, 0.00794428
1374.0, 0.00720959
1376.0, 0.00423482
1378.0, 0.00702826
1380.0, 0.00846123
1382.0, 0.00887927
1384.0, 0.00975882
1386.0, 0.00874915
1388.0, 0.00692208
1390.0, 0.0131849
1392.0, 0.00895602
1394.0, 0.00622466
1396.0, 0.00680596
1398.0, 0.00569587
1400.0, 0.0142019
1402.0, 0.0109009
1404.0, 0.00717034
1406.0, 0.0094412
1408.0, 0.00796039
1410.0, 0.00998068
1412.0, 0.00683864
1414.0, 0.00856036
1416.0, 0.00746997
1418.0, 0.00706244
1420.0, 0.00853136
1422.0, 0.00889887
1424.0, 0.00355098
1426.0, 0.00623053
1428.0, 0.00619652
1430.0, 0.00689129
1432.0, 0.00656772
1434.0, 0.00439546
1436.0, 0.00170538
1438.0, 0.00774655
1440.0, 0.00638486
1442.0, 0.007752
1444.0, 0.00921285
1446.0, 0.00397804
1448.0, 0.00665532
1450.0, 0.00533492
1452.0, 0.00447327
1454.0, 0.00951655
1456.0, 0.010825
1458.0, 0.00891571
1460.0, 0.00967463
1462.0, 0.00531477
1464.0, 0.00486021
1466.0, 0.00599115
1468.0, 0.00895622
1470.0, 0.00498306
1472.0, 0.0080848
1474.0, 0.00861995
1476.0, 0.00719042
1478.0, 0.00977643
1480.0, 0.00578
1482.0, 0.00352208
1484.0, 0.00712685
1486.0, 0.00532883
1488.0, 0.00315361
1490.0, 0.00254537
1492.0, 0.00250538
1494.0, 0.00326519
1496.0, 0.0046647
1498.0, 0.00618175
1500.0, 0.00589297
1502.0, 0.00267231
1504.0, 0.00433477
1506.0, 0.0100033
1508.0, 0.00773408
1510.0, 0.00866848
1512.0, 0.00757235
1514.0, 0.00753493
1516.0, 0.00648438
1518.0, 0.000746574
1520, 0.0
1522, 0.0
1524, 0.0
1526, 0.0
1528, 0.0
1530, 0.0
1532, 0.0
1534, 0.0
1536, 0.0
1538, 0.0
1540, 0.0
1542, 0.0
1544, 0.0
1546, 0.0
1548, 0.0
1550, 0.0
1552, 0.0
1554, 0.0
1556, 0.0
1558, 0.0
1560, 0.0
1562, 0.0
1564, 0.0
1566, 0.0
1568, 0.0
1570, 0.0
1572, 0.0
1574, 0.0
1576, 0.0
1578, 0.0
1580, 0.0
1582, 0.0
1584, 0.0
1586, 0.0
1588, 0.0
1590, 0.0
1592, 0.0
1594, 0.0
1596, 0.0
1598, 0.0
1599, 0.0