File: raw data/Dataset_2/Silicon/Silicon__R040145__Raman__780__0__unoriented__Raman_Data_Processed__27510.txt
30, 0.0
32, 0.0
34, 0.0
36, 0.0
38, 0.0
40, 0.0
42, 0.0
44, 0.0
46, 0.0
48, 0.0
50, 0.0
52, 0.0
54, 0.0
56, 0.0
58, 0.0
60, 0.0
62, 0.0
64, 0.0
66, 0.0
68, 0.0
70, 0.0
72, 0.0
74, 0.0
76, 0.0
78, 0.0
80, 0.0
82, 0.0
84, 0.0
86, 0.0
88, 0.0
90, 0.0
92, 0.0
94, 0.0
96, 0.0
98, 0.0
100, 0.0
102, 0.0
104, 0.0
106, 0.0
108, 0.0
110, 0.0
112, 0.0
114, 0.0
116, 0.0
118, 0.0
120, 0.0
122, 0.0
124, 0.0
126, 0.0
128, 0.0
130, 0.0
132, 0.0
134, 0.0
136, 0.0
138, 0.0
140, 0.0
142, 0.0
144, 0.0
146, 0.0
148, 0.0
150, 0.0
152, 0.0
154, 0.0
156, 0.0
158, 0.0
160, 0.0
162.0, 4.57877e-06
164.0, 0.00101063
166.0, 0.00206084
168.0, 0.00190352
170.0, 0.00318915
172.0, 0.00398374
174.0, 0.000640837
176.0, 0.00422652
178.0, 0.00246567
180.0, 0.0034296
182.0, 0.002492
184.0, 0.00283463
186.0, 0.00221886
188.0, 0.00262832
190.0, 0.000464244
192.0, 0.000823118
194.0, 0.00027044
196.0, 0.000709263
198.0, 0.00204146
200.0, 0.000933889
202.0, 0.00105982
204.0, 3.40925e-05
206.0, 0.00134859
208.0, 0.000213052
210.0, 0.000879825
212.0, 0.000679005
214.0, 0.00140681
216.0, 0.00324846
218.0, 0.00368304
220.0, 0.00485828
222.0, 0.00532663
224.0, 0.00654999
226.0, 0.00379094
228.0, 0.00543737
230.0, 0.00639572
232.0, 0.00660645
234.0, 0.00607806
236.0, 0.00736146
238.0, 0.00560108
240.0, 0.00542042
242.0, 0.00653797
244.0, 0.00485344
246.0, 0.00686291
248.0, 0.00590154
250.0, 0.00626537
252.0, 0.00546496
254.0, 0.00864363
256.0, 0.00673056
258.0, 0.00522257
260.0, 0.00944825
262.0, 0.0094755
264.0, 0.00927997
266.0, 0.010954
268.0, 0.0136996
270.0, 0.0133113
272.0, 0.0155366
274.0, 0.0177499
276.0, 0.0182466
278.0, 0.0241327
280.0, 0.0269545
282.0, 0.0352749
284.0, 0.0405863
286.0, 0.0469317
288.0, 0.0497478
290.0, 0.0547033
292.0, 0.0568891
294.0, 0.0600861
296.0, 0.0601488
298.0, 0.0597425
300.0, 0.0598154
302.0, 0.0541869
304.0, 0.0449009
306.0, 0.0373225
308.0, 0.0303491
310.0, 0.0274619
312.0, 0.0216148
314.0, 0.0206642
316.0, 0.0145644
318.0, 0.0150343
320.0, 0.0129942
322.0, 0.0110095
324.0, 0.0101105
326.0, 0.00785288
328.0, 0.0061677
330.0, 0.00569389
332.0, 0.00459747
334.0, 0.00313915
336.0, 0.00303469
338.0, 0.00290752
340.0, 0.00254153
342.0, 0.00056699
344.0, 0.00172056
346.0, 0.000335422
348.0, 0.00148321
350.0, 0.000485808
352.0, 0.000994042
354.0, 0.000800548
356.0, 0.000546122
358.0, 9.80141e-05
360.0, 0.000287496
362.0, 0.00139238
364.0, 0.00108893
366.0, 0.000351888
368.0, 0.000409394
370.0, 0.000601269
372.0, 0.000211071
374.0, 0.000428719
376.0, 0.000132059
378.0, 0.00100471
380.0, 0.000760285
382.0, 0.000530561
384.0, 5.32405e-05
386.0, 0.00171084
388.0, 0.00207387
390.0, 0.00110333
392.0, 0.000991841
394.0, 0.0025259
396.0, 0.00248946
398.0, 0.0040035
400.0, 0.00525662
402.0, 0.00549425
404.0, 0.00482121
406.0, 0.0071174
408.0, 0.00850624
410.0, 0.00748048
412.0, 0.00928482
414.0, 0.00869044
416.0, 0.00973205
418.0, 0.0101332
420.0, 0.0105611
422.0, 0.0105744
424.0, 0.0122067
426.0, 0.0103686
428.0, 0.00996542
430.0, 0.00961913
432.0, 0.0102348
434.0, 0.00901991
436.0, 0.00711852
438.0, 0.00693377
440.0, 0.00475664
442.0, 0.00382305
444.0, 0.00320405
446.0, 0.00338341
448.0, 0.000880679
450.0, 0.00118693
452.0, 0.000718014
454.0, 0.000542089
456.0, 0.000540383
458.0, 0.000431942
460.0, 0.000524053
462.0, 0.000271883
464.0, 0.00117514
466.0, 0.000293482
468.0, 0.000725699
470.0, 0.000468181
472.0, 0.000816495
474.0, 0.00157474
476.0, 0.000383695
478.0, 0.0005609
480.0, 0.00150196
482.0, 0.00253816
484.0, 0.00414095
486.0, 0.00804549
488.0, 0.0101512
490.0, 0.0159648
492.0, 0.0279027
494.0, 0.0439317
496.0, 0.0687653
498.0, 0.106716
500.0, 0.182218
502.0, 0.343859
504.0, 0.533292
506.0, 0.614563
508.0, 0.655846
510.0, 0.745358
512.0, 0.839758
514.0, 0.930731
516.0, 0.99254
518.0, 0.977
520.0, 0.793236
522.0, 0.495127
524.0, 0.28126
526.0, 0.180802
528.0, 0.131067
530.0, 0.0991087
532.0, 0.0814437
534.0, 0.0677737
536.0, 0.0563129
538.0, 0.0500603
540.0, 0.0428813
542.0, 0.038851
544.0, 0.0337607
546.0, 0.0305336
548.0, 0.029043
550.0, 0.0245425
552.0, 0.0216317
554.0, 0.0178938
556.0, 0.0152175
558.0, 0.0126842
560.0, 0.0114932
562.0, 0.00959615
564.0, 0.00648514
566.0, 0.0072655
568.0, 0.00495458
570.0, 0.00490211
572.0, 0.00369431
574.0, 0.00322151
576.0, 0.00119925
578.0, 0.00134036
580.0, 0.000851296
582.0, 0.000867681
584.0, 0.000839254
586.0, 0.00029798
588.0, 0.000481754
590.0, 9.59655e-05
592.0, 0.000243282
594.0, 0.000120982
596.0, 0.000204374
598.0, 0.000541634
600.0, 0.000507554
602.0, 0.000732897
604.0, 0.00130026
606.0, 0.00106832
608.0, 0.00120038
610.0, 0.00385758
612.0, 0.0022488
614.0, 0.00107585
616.0, 0.00165491
618.0, 0.0021859
620.0, 0.000867561
622.0, 0.000376655
624.0, 0.00133802
626.0, 8.07953e-05
628.0, 0.00122932
630.0, 0.00118568
632.0, 0.0010903
634.0, 0.000170115
636.0, 0.000328808
638.0, 0.00131894
640.0, 0.000228799
642.0, 0.00134007
644.0, 0.00120647
646.0, 0.0016962
648.0, 0.00108934
650.0, 0.00214503
652.0, 0.00255395
654.0, 0.00239483
656.0, 0.00312673
658.0, 0.00329314
660.0, 0.00399416
662.0, 0.00378318
664.0, 0.00335161
666.0, 0.00355778
668.0, 0.00355207
670.0, 0.00268792
672.0, 0.0033887
674.0, 0.00421441
676.0, 0.00293146
678.0, 0.00408194
680.0, 0.000538112
682.0, 0.00221135
684.0, 0.00153004
686.0, 0.00245815
688.0, 0.00154844
690.0, 0.00034024
692.0, 0.000610448
694.0, 0.000630079
696.0, 0.000940745
698.0, 9.22466e-05
700.0, 0.000605604
702.0, 0.000270465
704.0, 0.000676692
706.0, 0.00021258
708.0, 0.00163674
710.0, 0.000258121
712.0, 0.000908867
714.0, 0.000428249
716.0, 0.000836536
718.0, 0.00278859
720.0, 0.000990951
722.0, 0.000592348
724.0, 0.00242809
726.0, 0.000490542
728.0, 0.00205617
730.0, 0.000708194
732.0, 0.00146223
734.0, 0.000898004
736.0, 0.000625881
738.0, 0.00184883
740.0, 0.00081782
742.0, 0.000389009
744.0, 0.00175196
746.0, 0.00120046
748.0, 0.00210565
750.0, 0.00203062
752.0, 0.000492241
754.0, 0.00178097
756.0, 0.0019141
758.0, 0.000354154
760.0, 0.00196351
762.0, 0.00108982
764.0, 0.000714267
766.0, 0.000782961
768.0, 0.000554835
770.0, 0.00277472
772.0, 0.00097763
774.0, 0.000233139
776.0, 0.000988498
778.0, 0.000639253
780.0, 0.000804802
782.0, 0.00107558
784.0, 0.000341093
786.0, 0.000141325
788.0, 0.000532736
790.0, 0.00193014
792.0, 0.00127871
794.0, 0.000938361
796.0, 0.00215408
798.0, 0.00149669
800.0, 0.000382672
802.0, 0.000858667
804.0, 0.00261809
806.0, 0.000796946
808.0, 0.00193639
810.0, 0.00110155
812.0, 0.00190894
814.0, 0.00175919
816.0, 0.00166802
818.0, 0.00143437
820.0, 0.00214062
822.0, 0.00223828
824.0, 0.00255151
826.0, 0.00167243
828.0, 0.00150451
830.0, 0.00270304
832.0, 0.000656535
834.0, 0.000210519
836.0, 0.00228208
838.0, 0.00181075
840.0, 0.00193115
842.0, 0.00112644
844.0, 0.00219416
846.0, 0.00162825
848.0, 0.00211049
850.0, 0.00129721
852.0, 7.74185e-05
854.0, 0.00165865
856.0, 0.000154272
858.0, 0.00229936
860.0, 0.00313315
862.0, 0.00159126
864.0, 0.000663163
866.0, 0.00232975
868.0, 0.000874107
870.0, 0.00187402
872.0, 0.000312529
874.0, 0.00158223
876.0, 0.000310646
878.0, 0.00125378
880.0, 0.00101334
882.0, 0.000694257
884.0, 0.000502913
886.0, 0.00035127
888.0, 0.00131278
890.0, 1.95857e-05
892.0, 3.05123e-05
894.0, 0.000710135
896.0, 0.000230935
898.0, 0.00125832
900.0, 0.00064605
902.0, 0.000662112
904.0, 0.000733355
906.0, 0.000389225
908.0, 0.00212143
910.0, 0.00261533
912.0, 0.0028559
914.0, 0.00468547
916.0, 0.00704357
918.0, 0.0108944
920.0, 0.0160509
922.0, 0.0215029
924.0, 0.0266199
926.0, 0.0342505
928.0, 0.0391043
930.0, 0.0460031
932.0, 0.0472298
934.0, 0.0485331
936.0, 0.0474632
938.0, 0.0468147
940.0, 0.046804
942.0, 0.0430866
944.0, 0.0421441
946.0, 0.0414234
948.0, 0.0391134
950.0, 0.0375391
952.0, 0.0375038
954.0, 0.0364332
956.0, 0.0364879
958.0, 0.0340711
960.0, 0.0326519
962.0, 0.0321025
964.0, 0.0307577
966.0, 0.0314854
968.0, 0.0307519
970.0, 0.0305396
972.0, 0.0273367
974.0, 0.0261943
976.0, 0.0260949
978.0, 0.0245525
980.0, 0.0237276
982.0, 0.020721
984.0, 0.0182749
986.0, 0.0155968
988.0, 0.0130231
990.0, 0.00961267
992.0, 0.00918415
994.0, 0.00736394
996.0, 0.00497662
998.0, 0.00590065
1000.0, 0.0043728
1002.0, 0.00361044
1004.0, 0.00333686
1006.0, 0.00384717
1008.0, 0.00314654
1010.0, 0.00211944
1012.0, 0.00183046
1014.0, 0.00215913
1016.0, 0.00180065
1018.0, 0.00296142
1020.0, 0.000794543
1022.0, 0.0016461
1024.0, 0.00160519
1026.0, 0.000842674
1028.0, 0.000188849
1030.0, 0.000346636
1032.0, 0.000646143
1034.0, 0.000839064
1036.0, 0.000791364
1038.0, 0.000274033
1040.0, 0.000284067
1042.0, 0.000524781
1044.0, 0.000333422
1046.0, 0.000117542
1048.0, 4.61717e-05
1050.0, 0.00104976
1052.0, 0.000393828
1054.0, 0.000600468
1056.0, 0.00136976
1058.0, 0.000917057
1060.0, 0.00145401
1062.0, 0.00107097
1064.0, 0.000765146
1066.0, 0.000986241
1068.0, 0.000708345
1070.0, 0.00114013
1072.0, 0.00144191
1074.0, 0.000627416
1076.0, 0.000752365
1078.0, 0.00113701
1080.0, 0.00146508
1082.0, 0.000906801
1084.0, 0.00157996
1086.0, 0.00203092
1088.0, 0.00186385
1090.0, 0.00048802
1092.0, 0.00195159
1094.0, 0.00142587
1096.0, 0.000694144
1098.0, 0.000930283
1100.0, 0.00159844
1102.0, 0.00176693
1104.0, 0.00125504
1106.0, 0.000853648
1108.0, 0.00150188
1110.0, 0.00176441
1112.0, 0.000470589
1114.0, 0.00158588
1116.0, 0.00153668
1118.0, 0.00150305
1120.0, 0.00170897
1122.0, 0.00274713
1124.0, 0.00194046
1126.0, 0.000633874
1128.0, 0.00184905
1130.0, 0.00184138
1132.0, 0.00159772
1134.0, 0.000231088
1136.0, 0.00261801
1138.0, 0.000768947
1140.0, 0.00169028
1142.0, 0.00133325
1144.0, 0.00197636
1146.0, 0.000642255
1148.0, 0.00161683
1150.0, 0.0017197
1152.0, 0.000394849
1154.0, 0.000959563
1156.0, 0.00107608
1158.0, 3.38174e-05
1160.0, 0.00207726
1162.0, 0.000437224
1164.0, 0.00252372
1166.0, 0.00272757
1168.0, 0.00153711
1170.0, 0.000631286
1172.0, 0.00105658
1174.0, 0.00176899
1176.0, 0.000738535
1178.0, 0.00153427
1180.0, 4.12927e-05
1182.0, 0.000877207
1184.0, 0.000537602
1186.0, 0.000790258
1188.0, 0.00128764
1190.0, 0.000853975
1192.0, 0.000712757
1194.0, 0.000512077
1196.0, 0.000391061
1198.0, 0.00180458
1200.0, 0.00144472
1202.0, 0.000659019
1204.0, 0.00128015
1206.0, 0.00209803
1208.0, 0.000697735
1210.0, 0.000601939
1212.0, 0.0016693
1214.0, 0.00220502
1216.0, 0.000568673
1218.0, 0.000220075
1220.0, 0.000829195
1222.0, 0.0021052
1224.0, 0.000719075
1226.0, 0.000270242
1228.0, 0.000658264
1230.0, 0.000149517
1232.0, 0.00227044
1234.0, 0.00109854
1236.0, 0.000879218
1238.0, 0.00220448
1240.0, 0.000419157
1242.0, 0.00177461
1244.0, 0.00144674
1246.0, 0.00148803
1248.0, 0.0015645
1250.0, 0.00115074
1252.0, 0.000795531
1254.0, 0.00165502
1256.0, 0.00121212
1258.0, 0.00154287
1260.0, 0.00246489
1262.0, 0.000774508
1264.0, 0.000780467
1266.0, 0.000927096
1268.0, 0.000497153
1270.0, 0.00180681
1272.0, 0.00114283
1274.0, 5.7432e-05
1276, 0.0
1278, 0.0
1280, 0.0
1282, 0.0
1284, 0.0
1286, 0.0
1288, 0.0
1290, 0.0
1292, 0.0
1294, 0.0
1296, 0.0
1298, 0.0
1300, 0.0
1302, 0.0
1304, 0.0
1306, 0.0
1308, 0.0
1310, 0.0
1312, 0.0
1314, 0.0
1316, 0.0
1318, 0.0
1320, 0.0
1322, 0.0
1324, 0.0
1326, 0.0
1328, 0.0
1330, 0.0
1332, 0.0
1334, 0.0
1336, 0.0
1338, 0.0
1340, 0.0
1342, 0.0
1344, 0.0
1346, 0.0
1348, 0.0
1350, 0.0
1352, 0.0
1354, 0.0
1356, 0.0
1358, 0.0
1360, 0.0
1362, 0.0
1364, 0.0
1366, 0.0
1368, 0.0
1370, 0.0
1372, 0.0
1374, 0.0
1376, 0.0
1378, 0.0
1380, 0.0
1382, 0.0
1384, 0.0
1386, 0.0
1388, 0.0
1390, 0.0
1392, 0.0
1394, 0.0
1396, 0.0
1398, 0.0
1400, 0.0
1402, 0.0
1404, 0.0
1406, 0.0
1408, 0.0
1410, 0.0
1412, 0.0
1414, 0.0
1416, 0.0
1418, 0.0
1420, 0.0
1422, 0.0
1424, 0.0
1426, 0.0
1428, 0.0
1430, 0.0
1432, 0.0
1434, 0.0
1436, 0.0
1438, 0.0
1440, 0.0
1442, 0.0
1444, 0.0
1446, 0.0
1448, 0.0
1450, 0.0
1452, 0.0
1454, 0.0
1456, 0.0
1458, 0.0
1460, 0.0
1462, 0.0
1464, 0.0
1466, 0.0
1468, 0.0
1470, 0.0
1472, 0.0
1474, 0.0
1476, 0.0
1478, 0.0
1480, 0.0
1482, 0.0
1484, 0.0
1486, 0.0
1488, 0.0
1490, 0.0
1492, 0.0
1494, 0.0
1496, 0.0
1498, 0.0
1500, 0.0
1502, 0.0
1504, 0.0
1506, 0.0
1508, 0.0
1510, 0.0
1512, 0.0
1514, 0.0
1516, 0.0
1518, 0.0
1520, 0.0
1522, 0.0
1524, 0.0
1526, 0.0
1528, 0.0
1530, 0.0
1532, 0.0
1534, 0.0
1536, 0.0
1538, 0.0
1540, 0.0
1542, 0.0
1544, 0.0
1546, 0.0
1548, 0.0
1550, 0.0
1552, 0.0
1554, 0.0
1556, 0.0
1558, 0.0
1560, 0.0
1562, 0.0
1564, 0.0
1566, 0.0
1568, 0.0
1570, 0.0
1572, 0.0
1574, 0.0
1576, 0.0
1578, 0.0
1580, 0.0
1582, 0.0
1584, 0.0
1586, 0.0
1588, 0.0
1590, 0.0
1592, 0.0
1594, 0.0
1596, 0.0
1598, 0.0
1599, 0.0