File: raw data/Dataset_2/Silicon/Silicon__R040145__Raman__514__0__unoriented__Raman_Data_Processed__10159.txt
30, 0.0
32, 0.0
34, 0.0
36, 0.0
38, 0.0
40, 0.0
42, 0.0
44, 0.0
46, 0.0
48, 0.0
50, 0.0
52, 0.0
54, 0.0
56, 0.0
58, 0.0
60, 0.0
62, 0.0
64, 0.0
66, 0.0
68, 0.0
70, 0.0
72, 0.0
74, 0.0
76, 0.0
78, 0.0
80, 0.0
82, 0.0
84, 0.0
86, 0.0
88, 0.0
90, 0.0
92, 0.0
94, 0.0
96, 0.0
98, 0.0
100, 0.0
102, 0.0
104, 0.0
106, 0.0
108, 0.0
110, 0.0
112, 0.0
114, 0.0
116, 0.0
118, 0.0
120, 0.0
122, 0.0
124, 0.0
126, 0.0
128, 0.0
130.0, 0.00253613
132.0, 0.000943591
134.0, 0.000485358
136.0, 0.00270643
138.0, 0.00563259
140.0, 0.00374572
142.0, 0.00782065
144.0, 0.0026071
146.0, 0.00578384
148.0, 0.0043557
150.0, 0.00428006
152.0, 0.00592527
154.0, 0.00562002
156.0, 0.00351006
158.0, 0.00594724
160.0, 0.00721981
162.0, 0.00328628
164.0, 0.000672396
166.0, 0.00251858
168.0, 0.00200186
170.0, 0.00187726
172.0, 0.0033659
174.0, 0.00383927
176.0, 0.00498322
178.0, 0.00561321
180.0, 0.00503033
182.0, 0.00433104
184.0, 0.00359985
186.0, 0.00506204
188.0, 0.00596489
190.0, 0.00600625
192.0, 0.00716519
194.0, 0.00836925
196.0, 0.00938305
198.0, 0.0100711
200.0, 0.0112287
202.0, 0.0102442
204.0, 0.0103439
206.0, 0.0100071
208.0, 0.0100982
210.0, 0.00562393
212.0, 0.00159394
214.0, 0.00218187
216.0, 0.000731018
218.0, 0.00101231
220.0, 0.000900922
222.0, 1.83487e-05
224.0, 0.000585739
226.0, 6.99115e-05
228.0, 0.00153949
230.0, 0.000908016
232.0, 0.000315286
234.0, 0.000178392
236.0, 0.00165191
238.0, 0.000823098
240.0, 0.000587175
242.0, 0.000151851
244.0, 9.75257e-05
246.0, 0.000631942
248.0, 0.000528845
250.0, 0.000234664
252.0, 0.0017633
254.0, 0.00136394
256.0, 0.000994106
258.0, 0.000577083
260.0, 0.000246539
262.0, 0.000520421
264.0, 0.000647709
266.0, 0.00151645
268.0, 0.000989543
270.0, 0.00148938
272.0, 0.000707828
274.0, 0.00167051
276.0, 0.00114685
278.0, 0.00172519
280.0, 0.000647327
282.0, 0.000556472
284.0, 0.00141265
286.0, 0.00133606
288.0, 0.00219109
290.0, 0.00249735
292.0, 0.00344194
294.0, 0.0029338
296.0, 0.0043073
298.0, 0.00713336
300.0, 0.00844106
302.0, 0.00827976
304.0, 0.00808802
306.0, 0.0063378
308.0, 0.00674494
310.0, 0.00481565
312.0, 0.0040175
314.0, 0.0051631
316.0, 0.00363297
318.0, 0.00503417
320.0, 0.00397055
322.0, 0.00479435
324.0, 0.00460057
326.0, 0.00551666
328.0, 0.00466026
330.0, 0.0042922
332.0, 0.00499534
334.0, 0.00566066
336.0, 0.0047532
338.0, 0.00475602
340.0, 0.00509353
342.0, 0.00534454
344.0, 0.00522535
346.0, 0.00346031
348.0, 0.00462417
350.0, 0.00377341
352.0, 0.00543205
354.0, 0.00509246
356.0, 0.00529401
358.0, 0.00469053
360.0, 0.00496009
362.0, 0.00500492
364.0, 0.00496112
366.0, 0.00658822
368.0, 0.00723536
370.0, 0.0060217
372.0, 0.00639394
374.0, 0.0050456
376.0, 0.00559966
378.0, 0.00481176
380.0, 0.00524153
382.0, 0.00491871
384.0, 0.00409294
386.0, 0.00496289
388.0, 0.00524235
390.0, 0.00610319
392.0, 0.00405527
394.0, 0.0043381
396.0, 0.003608
398.0, 0.00464978
400.0, 0.00530544
402.0, 0.00367939
404.0, 0.00485021
406.0, 0.0043429
408.0, 0.0032884
410.0, 0.0029469
412.0, 0.00326371
414.0, 0.00327222
416.0, 0.00496574
418.0, 0.00372684
420.0, 0.00318694
422.0, 0.00477136
424.0, 0.00485588
426.0, 0.00447706
428.0, 0.00426816
430.0, 0.00469665
432.0, 0.00412422
434.0, 0.00458359
436.0, 0.00454135
438.0, 0.00496647
440.0, 0.0042036
442.0, 0.0042366
444.0, 0.00401342
446.0, 0.00448496
448.0, 0.00324727
450.0, 0.00283944
452.0, 0.00344704
454.0, 0.00218224
456.0, 0.0028865
458.0, 0.00370595
460.0, 0.00335452
462.0, 0.00461248
464.0, 0.00312293
466.0, 0.00460968
468.0, 0.00424227
470.0, 0.00478482
472.0, 0.00581789
474.0, 0.00663221
476.0, 0.00653741
478.0, 0.00560442
480.0, 0.00609778
482.0, 0.00819794
484.0, 0.00767711
486.0, 0.00906666
488.0, 0.00947463
490.0, 0.00994176
492.0, 0.010139
494.0, 0.0109508
496.0, 0.0121727
498.0, 0.0144236
500.0, 0.0146259
502.0, 0.0181732
504.0, 0.0223557
506.0, 0.034875
508.0, 0.0395034
510.0, 0.0565297
512.0, 0.0934194
514.0, 0.18743
516.0, 0.432021
518.0, 0.844325
520.0, 0.92845
522.0, 0.537027
524.0, 0.232197
526.0, 0.115104
528.0, 0.0700294
530.0, 0.0494033
532.0, 0.0368143
534.0, 0.0294284
536.0, 0.0250965
538.0, 0.0196717
540.0, 0.0161818
542.0, 0.0148211
544.0, 0.0148713
546.0, 0.0144318
548.0, 0.0113416
550.0, 0.0111064
552.0, 0.0122954
554.0, 0.00962066
556.0, 0.0107335
558.0, 0.0107946
560.0, 0.00944708
562.0, 0.0086063
564.0, 0.00889964
566.0, 0.0084856
568.0, 0.00767396
570.0, 0.00708229
572.0, 0.007458
574.0, 0.00813197
576.0, 0.00803369
578.0, 0.00731801
580.0, 0.00590864
582.0, 0.00794374
584.0, 0.00523382
586.0, 0.00748969
588.0, 0.00437021
590.0, 0.00222823
592.0, 0.00262094
594.0, 0.00189752
596.0, 0.00212453
598.0, 0.00203742
600.0, 0.00179205
602.0, 0.0015055
604.0, 0.00262578
606.0, 0.00233674
608.0, 0.0034757
610.0, 0.00480724
612.0, 0.00358826
614.0, 0.00383143
616.0, 0.00490561
618.0, 0.00402583
620.0, 0.00408499
622.0, 0.00430292
624.0, 0.00263885
626.0, 0.00321151
628.0, 0.00293903
630.0, 0.0021709
632.0, 0.00280829
634.0, 0.00379956
636.0, 0.00332412
638.0, 0.002672
640.0, 0.00316116
642.0, 0.00189194
644.0, 0.00191994
646.0, 0.00209972
648.0, 0.00268005
650.0, 0.00316948
652.0, 0.00219369
654.0, 0.00270807
656.0, 0.00142539
658.0, 0.00289983
660.0, 0.00223949
662.0, 0.00403855
664.0, 0.00139846
666.0, 0.00189
668.0, 0.00185894
670.0, 0.0024168
672.0, 0.00204585
674.0, 0.00205985
676.0, 0.00179744
678.0, 0.00155298
680.0, 0.00144571
682.0, 0.000319789
684.0, 0.00144866
686.0, 0.0016625
688.0, 0.00145993
690.0, 0.000792766
692.0, 0.00175759
694.0, 0.000948564
696.0, 0.000211321
698.0, 0.00164828
700.0, 0.000422982
702.0, 0.000628388
704.0, 0.00172358
706.0, 2.60161e-05
708.0, 0.000584862
710.0, 0.000583804
712.0, 0.000180573
714.0, 0.000523013
716.0, 0.000296265
718.0, 7.93484e-05
720.0, 0.00111015
722.0, 0.00151763
724.0, 0.00115044
726.0, 0.000914923
728.0, 0.00055364
730.0, 0.000215167
732.0, 0.000973716
734.0, 0.00154332
736.0, 0.00148622
738.0, 0.000545047
740.0, 0.000232663
742.0, 0.000558243
744.0, 0.000966122
746.0, 0.000472073
748.0, 0.000568122
750.0, 0.00137928
752.0, 0.000505024
754.0, 0.000844396
756.0, 0.00169069
758.0, 0.00084534
760.0, 0.000639314
762.0, 0.000911185
764.0, 0.000848088
766.0, 0.000882231
768.0, 0.00113237
770.0, 0.00126074
772.0, 0.00109518
774.0, 0.000317588
776.0, 0.000761516
778.0, 0.000407694
780.0, 0.00141485
782.0, 0.000979127
784.0, 0.000500372
786.0, 0.00109189
788.0, 0.000261229
790.0, 0.00163346
792.0, 0.00125628
794.0, 0.00290114
796.0, 0.002336
798.0, 0.00231078
800.0, 0.00163641
802.0, 0.000288482
804.0, 0.00193134
806.0, 0.000702212
808.0, 0.00209973
810.0, 0.00235875
812.0, 0.00220926
814.0, 0.00236879
816.0, 0.00228221
818.0, 0.00237654
820.0, 0.00449071
822.0, 0.00308146
824.0, 0.00255053
826.0, 0.00265103
828.0, 0.00154669
830.0, 0.00384331
832.0, 0.00209165
834.0, 0.00292774
836.0, 0.000628501
838.0, 0.00131959
840.0, 0.00251394
842.0, 0.00270522
844.0, 0.00288839
846.0, 0.00230302
848.0, 0.00405699
850.0, 0.00221154
852.0, 0.00203046
854.0, 0.00137001
856.0, 0.00123878
858.0, 0.00108199
860.0, 0.00141324
862.0, 0.00237259
864.0, 0.00333818
866.0, 0.00173485
868.0, 0.00126208
870.0, 0.00202867
872.0, 0.00322198
874.0, 0.00239925
876.0, 0.00190364
878.0, 0.00296011
880.0, 0.00224901
882.0, 0.00269221
884.0, 0.00251383
886.0, 0.00187699
888.0, 0.0025723
890.0, 0.00222922
892.0, 0.00338316
894.0, 0.00233081
896.0, 0.00149353
898.0, 0.0029873
900.0, 0.0025064
902.0, 0.00382524
904.0, 0.00319694
906.0, 0.00307596
908.0, 0.00346408
910.0, 0.00273149
912.0, 0.00270526
914.0, 0.00353966
916.0, 0.00370464
918.0, 0.00312749
920.0, 0.00305324
922.0, 0.0036274
924.0, 0.00532162
926.0, 0.00659328
928.0, 0.00995025
930.0, 0.0111764
932.0, 0.0120828
934.0, 0.0149229
936.0, 0.0183082
938.0, 0.0211852
940.0, 0.023899
942.0, 0.025578
944.0, 0.0244687
946.0, 0.0239458
948.0, 0.0240569
950.0, 0.0233595
952.0, 0.0250812
954.0, 0.0235478
956.0, 0.0239609
958.0, 0.024238
960.0, 0.0253834
962.0, 0.0242485
964.0, 0.0235773
966.0, 0.0236125
968.0, 0.0253024
970.0, 0.0267988
972.0, 0.0266488
974.0, 0.0273562
976.0, 0.0280322
978.0, 0.0271893
980.0, 0.0275731
982.0, 0.0268287
984.0, 0.0265701
986.0, 0.0271773
988.0, 0.0227644
990.0, 0.0211227
992.0, 0.0187989
994.0, 0.0153086
996.0, 0.014565
998.0, 0.0114047
1000.0, 0.00983709
1002.0, 0.0104029
1004.0, 0.00997366
1006.0, 0.00988502
1008.0, 0.00965104
1010.0, 0.00903034
1012.0, 0.00742997
1014.0, 0.00767272
1016.0, 0.00628187
1018.0, 0.00696916
1020.0, 0.0048024
1022.0, 0.00522995
1024.0, 0.00608469
1026.0, 0.00411144
1028.0, 0.00493722
1030.0, 0.00517827
1032.0, 0.00454748
1034.0, 0.00298081
1036.0, 0.00422638
1038.0, 0.00420212
1040.0, 0.0035607
1042.0, 0.00166108
1044.0, 0.00307284
1046.0, 0.00229695
1048.0, 0.00204639
1050.0, 0.00205347
1052.0, 0.00180381
1054.0, 0.00125668
1056.0, 0.00167107
1058.0, 0.0025317
1060.0, 0.00129417
1062.0, 0.00134817
1064.0, 0.00302562
1066.0, 0.00314466
1068.0, 0.0028627
1070.0, 0.00349775
1072.0, 0.00247342
1074.0, 0.00262215
1076.0, 0.00246004
1078.0, 0.00269351
1080.0, 0.00249685
1082.0, 0.000346693
1084.0, 0.00173038
1086.0, 0.0016409
1088.0, 0.00219575
1090.0, 0.00126484
1092.0, 0.0010482
1094.0, 0.00126984
1096.0, 0.00134312
1098.0, 0.000157318
1100.0, 0.00217578
1102.0, 0.00147378
1104.0, 0.00217984
1106.0, 0.00116248
1108.0, 0.00204965
1110.0, 0.0011449
1112.0, 0.0014807
1114.0, 0.00130527
1116.0, 0.000845499
1118.0, 0.00213688
1120.0, 0.0020522
1122.0, 0.00478224
1124.0, 0.00548896
1126.0, 0.00262989
1128.0, 0.00144351
1130.0, 0.00133579
1132.0, 0.000495126
1134.0, 0.000163918
1136.0, 0.00135409
1138.0, 0.00142521
1140.0, 0.00104007
1142.0, 0.000549393
1144.0, 0.00161724
1146.0, 0.0005892
1148.0, 0.000867371
1150.0, 0.000561316
1152.0, 0.00193729
1154.0, 0.00127746
1156.0, 0.000647309
1158.0, 0.000786045
1160.0, 0.00173549
1162.0, 0.00177376
1164.0, 0.000422971
1166.0, 0.00125815
1168.0, 0.00096445
1170.0, 0.000281682
1172.0, 0.000750973
1174.0, 0.000288942
1176.0, 0.00162357
1178.0, 0.000701535
1180.0, 0.00113636
1182.0, 0.00195169
1184.0, 0.00204026
1186.0, 0.00207459
1188.0, 0.000449577
1190.0, 0.00145132
1192.0, 0.000973424
1194.0, 0.00107123
1196.0, 0.00179122
1198.0, 0.000923722
1200.0, 0.00152529
1202.0, 0.0011417
1204.0, 0.000273387
1206.0, 0.00146653
1208.0, 0.000480472
1210.0, 0.00106366
1212.0, 0.00202623
1214.0, 0.00114644
1216.0, 0.00238772
1218.0, 0.00101437
1220.0, 0.000473884
1222.0, 0.00173348
1224.0, 0.00238141
1226.0, 0.000696153
1228.0, 0.00139826
1230.0, 0.00060278
1232.0, 0.000463395
1234.0, 0.000852629
1236.0, 0.00232844
1238.0, 0.000746186
1240.0, 0.00105532
1242.0, 0.000297717
1244.0, 0.000969366
1246.0, 0.00131339
1248.0, 0.00177156
1250.0, 0.0020727
1252.0, 0.000479717
1254.0, 9.60373e-06
1256.0, 0.000485014
1258.0, 0.000988081
1260.0, 0.00265624
1262.0, 0.00148071
1264.0, 0.00143938
1266.0, 0.00024572
1268.0, 0.000330295
1270.0, 0.000598807
1272.0, 0.000902129
1274.0, 0.000964447
1276.0, 0.00019188
1278.0, 0.000284882
1280.0, 0.000231265
1282.0, 0.00095386
1284.0, 0.000458533
1286.0, 0.000514244
1288.0, 0.0014394
1290.0, 0.00154137
1292.0, 0.00187142
1294.0, 0.0011739
1296.0, 0.00106103
1298.0, 0.00195098
1300.0, 0.000963423
1302.0, 0.00200754
1304.0, 0.00174013
1306.0, 0.00114859
1308.0, 0.00177413
1310.0, 0.000807023
1312.0, 0.000562198
1314.0, 0.00163454
1316.0, 0.000910322
1318.0, 0.00190378
1320.0, 0.000684922
1322.0, 0.00242573
1324.0, 0.0013945
1326.0, 0.00137559
1328.0, 0.000229191
1330.0, 0.00214742
1332.0, 0.00342638
1334.0, 0.00173046
1336.0, 0.00159798
1338.0, 0.0023947
1340.0, 0.00365512
1342.0, 0.00220174
1344.0, 0.00417261
1346.0, 0.00357268
1348.0, 0.0043862
1350.0, 0.00320909
1352.0, 0.00288759
1354.0, 0.0030945
1356.0, 0.00301737
1358.0, 0.00303872
1360.0, 0.00338028
1362.0, 0.0033355
1364.0, 0.00335586
1366.0, 0.00250941
1368.0, 0.0040685
1370.0, 0.00323286
1372.0, 0.003149
1374.0, 0.00296908
1376.0, 0.00265895
1378.0, 0.00310974
1380.0, 0.00330222
1382.0, 0.00411156
1384.0, 0.00382407
1386.0, 0.00345758
1388.0, 0.00282499
1390.0, 0.00285192
1392.0, 0.00205087
1394.0, 0.00371726
1396.0, 0.00116965
1398.0, 0.00314874
1400.0, 0.00359196
1402.0, 0.00358383
1404.0, 0.00287927
1406.0, 0.00212603
1408.0, 0.00194737
1410.0, 0.00339252
1412.0, 0.0033074
1414.0, 0.00305025
1416.0, 0.0034296
1418.0, 0.00359889
1420.0, 0.00352316
1422.0, 0.00288318
1424.0, 0.00344257
1426.0, 0.00264952
1428.0, 0.00296426
1430.0, 0.00395933
1432.0, 0.00335283
1434.0, 0.002384
1436.0, 0.0032055
1438.0, 0.00273152
1440.0, 0.00406041
1442.0, 0.00386895
1444.0, 0.00490536
1446.0, 0.00333549
1448.0, 0.00250518
1450.0, 0.00287631
1452.0, 0.00333046
1454.0, 0.00391727
1456.0, 0.0039118
1458.0, 0.00319347
1460.0, 0.00293823
1462.0, 0.00354064
1464.0, 0.00381214
1466.0, 0.00120159
1468.0, 0.00198643
1470.0, 0.00283881
1472.0, 0.00279581
1474.0, 0.00285221
1476.0, 0.00229745
1478.0, 0.00246961
1480.0, 0.00312365
1482.0, 0.00268457
1484.0, 0.00360532
1486.0, 0.00280475
1488.0, 0.00177151
1490.0, 0.00285959
1492.0, 0.00148432
1494.0, 0.000269372
1496.0, 0.00359356
1498.0, 0.0024061
1500.0, 0.000869983
1502.0, 0.00268685
1504.0, 0.000743655
1506.0, 0.000601723
1508.0, 0.00100301
1510.0, 0.00218501
1512.0, 0.00202844
1514.0, 0.000646922
1516.0, 0.0010533
1518.0, 0.00134709
1520.0, 0.00179692
1522.0, 0.000444957
1524, 0.0
1526, 0.0
1528, 0.0
1530, 0.0
1532, 0.0
1534, 0.0
1536, 0.0
1538, 0.0
1540, 0.0
1542, 0.0
1544, 0.0
1546, 0.0
1548, 0.0
1550, 0.0
1552, 0.0
1554, 0.0
1556, 0.0
1558, 0.0
1560, 0.0
1562, 0.0
1564, 0.0
1566, 0.0
1568, 0.0
1570, 0.0
1572, 0.0
1574, 0.0
1576, 0.0
1578, 0.0
1580, 0.0
1582, 0.0
1584, 0.0
1586, 0.0
1588, 0.0
1590, 0.0
1592, 0.0
1594, 0.0
1596, 0.0
1598, 0.0
1599, 0.0