File: raw data/Dataset_2/CopperIItetraamminenitrate/CopperIItetraamminenitrate__R060941__Raman__785__0__unoriented__Raman_Data_Processed__17210.txt
30, 0.0
32, 0.0
34, 0.0
36, 0.0
38, 0.0
40, 0.0
42, 0.0
44, 0.0
46, 0.0
48, 0.0
50, 0.0
52, 0.0
54, 0.0
56, 0.0
58, 0.0
60, 0.0
62, 0.0
64, 0.0
66, 0.0
68, 0.0
70, 0.0
72, 0.0
74, 0.0
76, 0.0
78, 0.0
80, 0.0
82, 0.0
84, 0.0
86, 0.0
88, 0.0
90, 0.0
92, 0.0
94, 0.0
96, 0.0
98, 0.0
100, 0.0
102, 0.0
104, 0.0
106, 0.0
108, 0.0
110, 0.0
112, 0.0
114, 0.0
116, 0.0
118, 0.0
120, 0.0
122, 0.0
124, 0.0
126, 0.0
128, 0.0
130, 0.0
132, 0.0
134, 0.0
136, 0.0
138, 0.0
140, 0.0
142.0, 0.00052151
144.0, 0.0019869
146.0, 0.00996124
148.0, 0.0150585
150.0, 0.0192429
152.0, 0.0205008
154.0, 0.0212699
156.0, 0.0200024
158.0, 0.0195989
160.0, 0.0199618
162.0, 0.0202241
164.0, 0.0192808
166.0, 0.0201654
168.0, 0.0211456
170.0, 0.0236196
172.0, 0.0186133
174.0, 0.0170712
176.0, 0.0146318
178.0, 0.0161094
180.0, 0.0102291
182.0, 0.0131135
184.0, 0.00833585
186.0, 0.00847304
188.0, 0.0102591
190.0, 0.00693124
192.0, 0.00792611
194.0, 0.00462664
196.0, 0.00653698
198.0, 0.00700596
200.0, 0.0063922
202.0, 0.00706315
204.0, 0.00296345
206.0, 0.000530315
208.0, 0.00380966
210.0, 0.0006404
212.0, 0.0015021
214.0, 0.000403159
216.0, 0.0012345
218.0, 0.000603877
220.0, 0.00098355
222.0, 0.00118558
224.0, 0.000704363
226.0, 0.00498432
228.0, 0.00102721
230.0, 0.000214937
232.0, 0.00162276
234.0, 0.000376885
236.0, 0.00234257
238.0, 0.00146
240.0, 0.00208715
242.0, 0.000828065
244.0, 0.000472281
246.0, 0.000545898
248.0, 0.00301624
250.0, 0.00530866
252.0, 0.0050048
254.0, 0.00598929
256.0, 0.00793007
258.0, 0.00765805
260.0, 0.00819953
262.0, 0.0115115
264.0, 0.014972
266.0, 0.0174482
268.0, 0.0201335
270.0, 0.0224529
272.0, 0.0209194
274.0, 0.0266912
276.0, 0.0287448
278.0, 0.0359498
280.0, 0.0364892
282.0, 0.0388611
284.0, 0.0439719
286.0, 0.04834
288.0, 0.0538205
290.0, 0.0540678
292.0, 0.0585719
294.0, 0.0570967
296.0, 0.0628155
298.0, 0.0583067
300.0, 0.0638607
302.0, 0.0601301
304.0, 0.058708
306.0, 0.0514289
308.0, 0.0472637
310.0, 0.0323693
312.0, 0.0274163
314.0, 0.0231116
316.0, 0.0186725
318.0, 0.0138731
320.0, 0.0159701
322.0, 0.00892072
324.0, 0.00877248
326.0, 0.00665031
328.0, 0.00906411
330.0, 0.00427383
332.0, 0.00472278
334.0, 0.00771066
336.0, 0.00196908
338.0, 0.00358341
340.0, 0.00495761
342.0, 0.00460626
344.0, 0.00203923
346.0, 0.00511926
348.0, 0.00428958
350.0, 0.000456436
352.0, 0.000147027
354.0, 0.00393801
356.0, 0.0033391
358.0, 0.00120486
360.0, 0.000434422
362.0, 0.00272874
364.0, 0.00101414
366.0, 0.00169895
368.0, 0.00142405
370.0, 0.000310218
372.0, 0.00268309
374.0, 0.000929187
376.0, 0.00492904
378.0, 0.0054459
380.0, 0.00423622
382.0, 0.00476032
384.0, 0.00619335
386.0, 0.00306393
388.0, 0.00758594
390.0, 0.00801404
392.0, 0.00807658
394.0, 0.00833862
396.0, 0.00798833
398.0, 0.00782443
400.0, 0.0114337
402.0, 0.0117286
404.0, 0.0165128
406.0, 0.0212692
408.0, 0.0254301
410.0, 0.0262268
412.0, 0.0365528
414.0, 0.0414659
416.0, 0.0478255
418.0, 0.0616451
420.0, 0.0696553
422.0, 0.080805
424.0, 0.0882747
426.0, 0.0864694
428.0, 0.0850718
430.0, 0.0780528
432.0, 0.0637554
434.0, 0.0506017
436.0, 0.0401365
438.0, 0.028461
440.0, 0.0211287
442.0, 0.0152387
444.0, 0.0126535
446.0, 0.0100701
448.0, 0.00830214
450.0, 0.0070623
452.0, 0.00328907
454.0, 0.00793048
456.0, 0.00293276
458.0, 0.00345921
460.0, 0.0028644
462.0, 0.00317694
464.0, 0.000667677
466.0, 0.0042767
468.0, 0.00210708
470.0, 0.00546833
472.0, 0.00561527
474.0, 0.00378822
476.0, 0.000587033
478.0, 0.0056309
480.0, 0.000418399
482.0, 0.00243704
484.0, 0.00145302
486.0, 0.000637493
488.0, 0.00164602
490.0, 0.000164361
492.0, 0.00358352
494.0, 0.000104413
496.0, 0.00125351
498.0, 0.00188371
500.0, 0.00148728
502.0, 0.00276352
504.0, 0.0015307
506.0, 0.00243867
508.0, 0.0043211
510.0, 0.00323366
512.0, 0.00312619
514.0, 0.00354519
516.0, 0.00223743
518.0, 0.000424237
520.0, 0.00160769
522.0, 0.000547028
524.0, 0.00291883
526.0, 0.00211037
528.0, 0.0048382
530.0, 0.00114651
532.0, 0.000998145
534.0, 0.00184625
536.0, 0.000847908
538.0, 0.00317795
540.0, 0.00132298
542.0, 0.00397971
544.0, 0.00153259
546.0, 0.00295476
548.0, 0.00282888
550.0, 0.00240944
552.0, 0.0016379
554.0, 0.0049335
556.0, 0.0021606
558.0, 0.0027194
560.0, 0.0034307
562.0, 0.00251316
564.0, 0.000679992
566.0, 0.00107463
568.0, 0.00347668
570.0, 0.000607262
572.0, 0.00222434
574.0, 0.00300408
576.0, 0.00171354
578.0, 0.000354653
580.0, 0.00405276
582.0, 0.00342802
584.0, 0.00633357
586.0, 0.00403562
588.0, 0.00416487
590.0, 0.00317446
592.0, 0.00293421
594.0, 0.000958267
596.0, 0.000915169
598.0, 0.000524044
600.0, 0.00451309
602.0, 0.00596336
604.0, 0.000896359
606.0, 0.000688329
608.0, 0.00123244
610.0, 0.00156007
612.0, 0.00451084
614.0, 0.00439104
616.0, 0.00165832
618.0, 0.00436501
620.0, 0.00283008
622.0, 0.00681421
624.0, 0.00480513
626.0, 0.00336669
628.0, 0.00337716
630.0, 0.0035307
632.0, 0.00113017
634.0, 0.000640428
636.0, 0.00428138
638.0, 0.00207632
640.0, 0.00102651
642.0, 0.00131371
644.0, 0.00435497
646.0, 0.00258135
648.0, 0.000941914
650.0, 0.000171199
652.0, 0.00244424
654.0, 0.00106323
656.0, 0.00525362
658.0, 0.00555876
660.0, 0.00214055
662.0, 0.000288233
664.0, 0.000973736
666.0, 0.00128835
668.0, 0.00421786
670.0, 0.000793745
672.0, 0.00123981
674.0, 0.000625055
676.0, 0.00137193
678.0, 0.00163648
680.0, 0.00343496
682.0, 0.000572365
684.0, 0.00304103
686.0, 0.0016324
688.0, 0.00382102
690.0, 0.00401649
692.0, 0.0041481
694.0, 0.00795169
696.0, 0.00734159
698.0, 0.00890289
700.0, 0.0155494
702.0, 0.0178583
704.0, 0.0259341
706.0, 0.0384779
708.0, 0.0503275
710.0, 0.0409334
712.0, 0.0364141
714.0, 0.0419115
716.0, 0.0511906
718.0, 0.0499329
720.0, 0.0388772
722.0, 0.019886
724.0, 0.0139135
726.0, 0.00539273
728.0, 0.00253901
730.0, 0.00277618
732.0, 0.0023782
734.0, 0.00203222
736.0, 0.00308449
738.0, 0.00403664
740.0, 0.0038482
742.0, 0.00192703
744.0, 0.00200831
746.0, 0.00498426
748.0, 0.000548732
750.0, 0.00366737
752.0, 0.00524617
754.0, 0.00353956
756.0, 0.00417662
758.0, 0.00221035
760.0, 0.00148853
762.0, 0.00529265
764.0, 0.00142526
766.0, 0.00217605
768.0, 0.00432825
770.0, 0.00157341
772.0, 0.00303048
774.0, 0.00111755
776.0, 0.00119123
778.0, 0.000382078
780.0, 0.00150872
782.0, 0.000674427
784.0, 0.00192594
786.0, 0.00139823
788.0, 0.00329401
790.0, 0.000985718
792.0, 0.00263478
794.0, 0.00041703
796.0, 0.000739379
798.0, 0.000314154
800.0, 0.00327454
802.0, 0.000179213
804.0, 0.00180607
806.0, 0.00367544
808.0, 0.00133627
810.0, 0.00100436
812.0, 0.000552856
814.0, 0.000680915
816.0, 0.0032626
818.0, 0.00179717
820.0, 0.000457581
822.0, 0.000585323
824.0, 0.00400028
826.0, 0.00249418
828.0, 0.00168032
830.0, 0.00319309
832.0, 0.00344483
834.0, 0.000780304
836.0, 0.00214888
838.0, 0.00251494
840.0, 0.000323351
842.0, 0.00264456
844.0, 0.00119522
846.0, 0.00349808
848.0, 0.00410163
850.0, 0.00310864
852.0, 0.00174713
854.0, 0.00394141
856.0, 0.000350341
858.0, 0.00470492
860.0, 0.00157418
862.0, 0.00395258
864.0, 0.000481524
866.0, 0.00252698
868.0, 0.00209898
870.0, 0.00404552
872.0, 4.23409e-05
874.0, 0.00295614
876.0, 0.00279654
878.0, 0.000441997
880.0, 0.00350653
882.0, 0.00255157
884.0, 0.00593759
886.0, 0.00322297
888.0, 0.002566
890.0, 0.00339658
892.0, 0.00243231
894.0, 0.00167013
896.0, 0.00386147
898.0, 0.00323034
900.0, 0.00055295
902.0, 0.00181762
904.0, 0.00262599
906.0, 0.00100082
908.0, 0.00201558
910.0, 0.00107007
912.0, 0.00162252
914.0, 0.00539213
916.0, 0.0011522
918.0, 0.0023191
920.0, 0.00399892
922.0, 0.00267011
924.0, 0.000836509
926.0, 0.000842408
928.0, 0.00493416
930.0, 0.000930414
932.0, 0.00208812
934.0, 0.00343427
936.0, 0.0025636
938.0, 0.00329077
940.0, 0.00332027
942.0, 0.00429811
944.0, 0.000672494
946.0, 0.00311046
948.0, 0.00202356
950.0, 0.00280825
952.0, 0.00532617
954.0, 0.00137498
956.0, 0.00147983
958.0, 0.00263723
960.0, 0.00244266
962.0, 0.00434384
964.0, 0.00252328
966.0, 0.00164572
968.0, 0.00100853
970.0, 0.00347577
972.0, 0.000867481
974.0, 0.0029677
976.0, 0.00393999
978.0, 0.000888226
980.0, 0.00420347
982.0, 0.00434953
984.0, 0.00153303
986.0, 0.00330236
988.0, 0.00158535
990.0, 0.00023662
992.0, 0.00183848
994.0, 0.000581646
996.0, 0.00287943
998.0, 0.0033365
1000.0, 0.00227934
1002.0, 0.00162931
1004.0, 0.00290421
1006.0, 0.00121369
1008.0, 0.00320006
1010.0, 0.00392443
1012.0, 0.00250294
1014.0, 0.00115989
1016.0, 0.0034685
1018.0, 0.000856037
1020.0, 0.00484276
1022.0, 0.00207246
1024.0, 0.00604801
1026.0, 0.00832419
1028.0, 0.010314
1030.0, 0.0150003
1032.0, 0.0144739
1034.0, 0.0234359
1036.0, 0.0366706
1038.0, 0.0762143
1040.0, 0.140326
1042.0, 0.231442
1044.0, 0.354365
1046.0, 0.568959
1048.0, 0.797266
1050.0, 0.963657
1052.0, 0.866184
1054.0, 0.455184
1056.0, 0.15632
1058.0, 0.0487423
1060.0, 0.0229062
1062.0, 0.0145947
1064.0, 0.0115452
1066.0, 0.00850281
1068.0, 0.00700833
1070.0, 0.0047168
1072.0, 0.00291144
1074.0, 0.00202457
1076.0, 0.00401878
1078.0, 0.00367142
1080.0, 0.00372852
1082.0, 0.00143475
1084.0, 0.00200797
1086.0, 0.00243031
1088.0, 0.00182247
1090.0, 0.00102944
1092.0, 0.00193627
1094.0, 0.000912145
1096.0, 0.00538333
1098.0, 0.000987377
1100.0, 0.0049796
1102.0, 0.00112819
1104.0, 0.003023
1106.0, 0.00108686
1108.0, 0.00234557
1110.0, 0.00375367
1112.0, 0.00222541
1114.0, 0.00455752
1116.0, 0.00267186
1118.0, 0.00300468
1120.0, 0.00254776
1122.0, 0.00285069
1124.0, 0.00298778
1126.0, 0.00384475
1128.0, 0.00313554
1130.0, 0.00146781
1132.0, 0.00327157
1134.0, 0.00262052
1136.0, 0.00288907
1138.0, 0.00593524
1140.0, 0.00236824
1142.0, 0.00394653
1144.0, 0.00163643
1146.0, 0.00262088
1148.0, 0.00477319
1150.0, 0.00193071
1152.0, 0.00253615
1154.0, 0.000614471
1156.0, 0.000668838
1158.0, 0.00128643
1160.0, 0.00115239
1162.0, 0.000901584
1164.0, 0.0015339
1166.0, 0.00174764
1168.0, 0.00134271
1170.0, 0.00200925
1172.0, 0.00136123
1174.0, 0.00361052
1176.0, 0.0018631
1178.0, 0.000648283
1180.0, 0.00142098
1182.0, 0.00118797
1184.0, 0.00115658
1186.0, 0.00108926
1188.0, 0.00112652
1190.0, 0.000803193
1192.0, 0.00129797
1194.0, 0.00220123
1196.0, 0.00409932
1198.0, 0.00281996
1200.0, 0.00207432
1202.0, 0.0019413
1204.0, 0.00131726
1206.0, 0.00542807
1208.0, 0.00257926
1210.0, 0.00278023
1212.0, 0.00390571
1214.0, 0.0071903
1216.0, 0.00477863
1218.0, 0.0105468
1220.0, 0.00592379
1222.0, 0.00644627
1224.0, 0.00910843
1226.0, 0.0112219
1228.0, 0.00722327
1230.0, 0.00693768
1232.0, 0.00451631
1234.0, 0.00376646
1236.0, 0.00239846
1238.0, 0.000675487
1240.0, 0.00033882
1242, 0.0
1244, 0.0
1246, 0.0
1248, 0.0
1250, 0.0
1252, 0.0
1254, 0.0
1256, 0.0
1258, 0.0
1260, 0.0
1262, 0.0
1264, 0.0
1266, 0.0
1268, 0.0
1270, 0.0
1272, 0.0
1274, 0.0
1276, 0.0
1278, 0.0
1280, 0.0
1282, 0.0
1284, 0.0
1286, 0.0
1288, 0.0
1290, 0.0
1292, 0.0
1294, 0.0
1296, 0.0
1298, 0.0
1300, 0.0
1302, 0.0
1304, 0.0
1306, 0.0
1308, 0.0
1310, 0.0
1312, 0.0
1314, 0.0
1316, 0.0
1318, 0.0
1320, 0.0
1322, 0.0
1324, 0.0
1326, 0.0
1328, 0.0
1330, 0.0
1332, 0.0
1334, 0.0
1336, 0.0
1338, 0.0
1340, 0.0
1342, 0.0
1344, 0.0
1346, 0.0
1348, 0.0
1350, 0.0
1352, 0.0
1354, 0.0
1356, 0.0
1358, 0.0
1360, 0.0
1362, 0.0
1364, 0.0
1366, 0.0
1368, 0.0
1370, 0.0
1372, 0.0
1374, 0.0
1376, 0.0
1378, 0.0
1380, 0.0
1382, 0.0
1384, 0.0
1386, 0.0
1388, 0.0
1390, 0.0
1392, 0.0
1394, 0.0
1396, 0.0
1398, 0.0
1400, 0.0
1402, 0.0
1404, 0.0
1406, 0.0
1408, 0.0
1410, 0.0
1412, 0.0
1414, 0.0
1416, 0.0
1418, 0.0
1420, 0.0
1422, 0.0
1424, 0.0
1426, 0.0
1428, 0.0
1430, 0.0
1432, 0.0
1434, 0.0
1436, 0.0
1438, 0.0
1440, 0.0
1442, 0.0
1444, 0.0
1446, 0.0
1448, 0.0
1450, 0.0
1452, 0.0
1454, 0.0
1456, 0.0
1458, 0.0
1460, 0.0
1462, 0.0
1464, 0.0
1466, 0.0
1468, 0.0
1470, 0.0
1472, 0.0
1474, 0.0
1476, 0.0
1478, 0.0
1480, 0.0
1482, 0.0
1484, 0.0
1486, 0.0
1488, 0.0
1490, 0.0
1492, 0.0
1494, 0.0
1496, 0.0
1498, 0.0
1500, 0.0
1502, 0.0
1504, 0.0
1506, 0.0
1508, 0.0
1510, 0.0
1512, 0.0
1514, 0.0
1516, 0.0
1518, 0.0
1520, 0.0
1522, 0.0
1524, 0.0
1526, 0.0
1528, 0.0
1530, 0.0
1532, 0.0
1534, 0.0
1536, 0.0
1538, 0.0
1540, 0.0
1542, 0.0
1544, 0.0
1546, 0.0
1548, 0.0
1550, 0.0
1552, 0.0
1554, 0.0
1556, 0.0
1558, 0.0
1560, 0.0
1562, 0.0
1564, 0.0
1566, 0.0
1568, 0.0
1570, 0.0
1572, 0.0
1574, 0.0
1576, 0.0
1578, 0.0
1580, 0.0
1582, 0.0
1584, 0.0
1586, 0.0
1588, 0.0
1590, 0.0
1592, 0.0
1594, 0.0
1596, 0.0
1598, 0.0
1599, 0.0