File: raw data/Dataset_2/CopperIItetraamminenitrate/CopperIItetraamminenitrate__R060941__Raman__532__0__unoriented__Raman_Data_Processed__17208.txt
30, 0.0
32, 0.0
34, 0.0
36, 0.0
38, 0.0
40, 0.0
42, 0.0
44, 0.0
46, 0.0
48, 0.0
50, 0.0
52, 0.0
54, 0.0
56, 0.0
58, 0.0
60, 0.0
62, 0.0
64, 0.0
66, 0.0
68, 0.0
70, 0.0
72, 0.0
74, 0.0
76, 0.0
78, 0.0
80, 0.0
82, 0.0
84, 0.0
86, 0.0
88, 0.0
90, 0.0
92, 0.0
94, 0.0
96, 0.0
98, 0.0
100, 0.0
102, 0.0
104, 0.0
106, 0.0
108, 0.0
110, 0.0
112, 0.0
114, 0.0
116, 0.0
118, 0.0
120, 0.0
122, 0.0
124, 0.0
126, 0.0
128, 0.0
130.0, 0.000160309
132.0, 0.00576191
134.0, 0.0101471
136.0, 0.0147349
138.0, 0.019495
140.0, 0.017699
142.0, 0.0126439
144.0, 0.0135012
146.0, 0.0182088
148.0, 0.0216016
150.0, 0.0217813
152.0, 0.0221234
154.0, 0.0217072
156.0, 0.0237614
158.0, 0.0192685
160.0, 0.0210823
162.0, 0.0167641
164.0, 0.0161366
166.0, 0.0169452
168.0, 0.0148108
170.0, 0.0150811
172.0, 0.0147391
174.0, 0.0126314
176.0, 0.00969303
178.0, 0.00945967
180.0, 0.00902807
182.0, 0.0108106
184.0, 0.0106722
186.0, 0.00598716
188.0, 0.00837381
190.0, 0.00565888
192.0, 0.0133755
194.0, 0.00531539
196.0, 0.00515036
198.0, 0.00433134
200.0, 0.00448146
202.0, 0.0024151
204.0, 0.00145035
206.0, 0.000332296
208.0, 0.00349272
210.0, 0.00115498
212.0, 0.0025175
214.0, 0.00167445
216.0, 0.00100036
218.0, 0.000192364
220.0, 0.000169061
222.0, 0.000842571
224.0, 0.00148449
226.0, 0.00146273
228.0, 0.00310846
230.0, 0.000253138
232.0, 0.00190167
234.0, 0.00231481
236.0, 0.00168744
238.0, 0.00365443
240.0, 0.00210944
242.0, 0.00582851
244.0, 0.00366563
246.0, 0.00524725
248.0, 0.00643701
250.0, 0.00891919
252.0, 0.0103563
254.0, 0.0118668
256.0, 0.0136993
258.0, 0.0195009
260.0, 0.018327
262.0, 0.0205551
264.0, 0.020863
266.0, 0.0249133
268.0, 0.0246674
270.0, 0.0275719
272.0, 0.0287663
274.0, 0.0299414
276.0, 0.0357912
278.0, 0.0369184
280.0, 0.0450085
282.0, 0.0457515
284.0, 0.0545256
286.0, 0.0553057
288.0, 0.0592995
290.0, 0.0621174
292.0, 0.0632228
294.0, 0.0672058
296.0, 0.0684832
298.0, 0.0726679
300.0, 0.0724138
302.0, 0.0690295
304.0, 0.0645721
306.0, 0.06273
308.0, 0.0495468
310.0, 0.0406963
312.0, 0.034071
314.0, 0.026143
316.0, 0.0213916
318.0, 0.019048
320.0, 0.014517
322.0, 0.0140584
324.0, 0.00874304
326.0, 0.00705258
328.0, 0.00691143
330.0, 0.0062971
332.0, 0.00444554
334.0, 0.00309614
336.0, 0.00460252
338.0, 0.00298613
340.0, 0.00443093
342.0, 0.0014933
344.0, 0.00463655
346.0, 0.00160442
348.0, 0.00279605
350.0, 0.00367619
352.0, 0.00237845
354.0, 0.00111244
356.0, 0.000455525
358.0, 0.00284738
360.0, 0.00141168
362.0, 0.00117798
364.0, 0.000665167
366.0, 0.000401465
368.0, 0.00109713
370.0, 0.00151298
372.0, 0.00457355
374.0, 0.00672635
376.0, 0.00289171
378.0, 0.00342753
380.0, 0.00355626
382.0, 0.0017298
384.0, 0.00335999
386.0, 0.00350313
388.0, 0.00323746
390.0, 0.00724662
392.0, 0.00496097
394.0, 0.00627692
396.0, 0.00993643
398.0, 0.00999626
400.0, 0.0125837
402.0, 0.0127593
404.0, 0.0179456
406.0, 0.0182734
408.0, 0.0212386
410.0, 0.02683
412.0, 0.0307942
414.0, 0.0404898
416.0, 0.0474647
418.0, 0.0576463
420.0, 0.0618764
422.0, 0.0668495
424.0, 0.0745026
426.0, 0.073833
428.0, 0.0743477
430.0, 0.0698919
432.0, 0.0516776
434.0, 0.0434776
436.0, 0.0338236
438.0, 0.0242788
440.0, 0.0186836
442.0, 0.013999
444.0, 0.0118482
446.0, 0.0107669
448.0, 0.00524246
450.0, 0.00392329
452.0, 0.0047474
454.0, 0.00209592
456.0, 0.000252315
458.0, 0.00439538
460.0, 0.00119646
462.0, 0.00421246
464.0, 0.00179454
466.0, 0.000381609
468.0, 0.00192923
470.0, 0.00421279
472.0, 0.00165898
474.0, 0.00431826
476.0, 0.00391186
478.0, 0.00305534
480.0, 0.00102765
482.0, 0.0024544
484.0, 0.000461002
486.0, 0.000678877
488.0, 0.00145478
490.0, 0.00232079
492.0, 0.00122846
494.0, 0.0014045
496.0, 0.000484837
498.0, 0.000676304
500.0, 0.0014467
502.0, 0.00357819
504.0, 0.000199838
506.0, 0.00398801
508.0, 0.000199862
510.0, 0.000636244
512.0, 0.00450794
514.0, 0.00134712
516.0, 0.000488771
518.0, 0.000645291
520.0, 0.00181752
522.0, 0.00072252
524.0, 0.00291697
526.0, 0.00414817
528.0, 0.000105197
530.0, 0.000933766
532.0, 0.00476178
534.0, 0.00482225
536.0, 0.00182428
538.0, 0.00245931
540.0, 0.00300493
542.0, 0.000829339
544.0, 0.00140719
546.0, 0.00513801
548.0, 0.00116077
550.0, 0.00326884
552.0, 0.00577544
554.0, 0.00136979
556.0, 0.00267676
558.0, 0.0014846
560.0, 0.00104177
562.0, 0.00132969
564.0, 0.00180998
566.0, 0.00240367
568.0, 0.00604572
570.0, 0.0022282
572.0, 0.00278827
574.0, 0.00280371
576.0, 0.00211656
578.0, 0.00193217
580.0, 0.00203774
582.0, 0.00060703
584.0, 0.00109236
586.0, 0.000128215
588.0, 0.000186668
590.0, 0.00166919
592.0, 0.00304413
594.0, 0.0018956
596.0, 0.00561372
598.0, 0.0021904
600.0, 0.00443419
602.0, 0.00474073
604.0, 0.00303928
606.0, 0.00424508
608.0, 0.00190853
610.0, 0.00183225
612.0, 0.0059276
614.0, 0.00211705
616.0, 0.00403633
618.0, 0.00163324
620.0, 0.000459364
622.0, 0.0013962
624.0, 0.00305977
626.0, 0.00360212
628.0, 0.00131419
630.0, 0.00427396
632.0, 0.00335362
634.0, 0.00265979
636.0, 0.00261191
638.0, 0.00670169
640.0, 0.00213136
642.0, 0.00359608
644.0, 0.00444622
646.0, 0.00150759
648.0, 0.0013506
650.0, 0.00122407
652.0, 0.00111055
654.0, 0.000471395
656.0, 0.00399899
658.0, 0.00249729
660.0, 0.00139438
662.0, 0.000557601
664.0, 0.00192956
666.0, 0.00597641
668.0, 0.00235798
670.0, 0.00389348
672.0, 0.00122703
674.0, 0.00163285
676.0, 0.00152772
678.0, 0.0010943
680.0, 0.00220905
682.0, 0.000806937
684.0, 0.00469132
686.0, 0.00101333
688.0, 0.00175181
690.0, 0.00368974
692.0, 0.00549893
694.0, 0.00565322
696.0, 0.00696266
698.0, 0.0131561
700.0, 0.0149384
702.0, 0.0173384
704.0, 0.0232595
706.0, 0.034165
708.0, 0.0475631
710.0, 0.0432225
712.0, 0.0395676
714.0, 0.0444518
716.0, 0.0484571
718.0, 0.047516
720.0, 0.0381867
722.0, 0.0192488
724.0, 0.0102596
726.0, 0.0085239
728.0, 0.00272883
730.0, 0.00682982
732.0, 0.00111944
734.0, 0.00176254
736.0, 0.000894484
738.0, 0.00346695
740.0, 0.00417317
742.0, 0.00107662
744.0, 0.0037391
746.0, 0.00414717
748.0, 0.00403113
750.0, 0.00374207
752.0, 0.00502366
754.0, 0.00308362
756.0, 0.00223303
758.0, 0.00406156
760.0, 0.00273454
762.0, 0.00431759
764.0, 0.00480598
766.0, 0.00249888
768.0, 0.00338729
770.0, 0.00143018
772.0, 0.00261243
774.0, 0.00234411
776.0, 0.000720763
778.0, 0.00423017
780.0, 0.00107605
782.0, 0.00203972
784.0, 0.00104947
786.0, 0.000973199
788.0, 0.00274689
790.0, 0.00161981
792.0, 0.00261913
794.0, 0.00208905
796.0, 0.00245079
798.0, 0.00275525
800.0, 0.000104359
802.0, 0.00293249
804.0, 0.000275874
806.0, 0.00135551
808.0, 0.000480651
810.0, 0.00259162
812.0, 0.00573399
814.0, 0.00266003
816.0, 0.00247957
818.0, 0.00148538
820.0, 0.00540232
822.0, 0.00126512
824.0, 0.00136701
826.0, 0.00412008
828.0, 0.00267464
830.0, 0.00301189
832.0, 0.00581334
834.0, 0.00123361
836.0, 0.00264462
838.0, 0.00041534
840.0, 0.00255421
842.0, 0.00867938
844.0, 0.00301216
846.0, 0.00491941
848.0, 0.00412983
850.0, 0.00411411
852.0, 0.00565345
854.0, 0.00120597
856.0, 0.00450781
858.0, 0.00170675
860.0, 0.00684393
862.0, 0.00407521
864.0, 0.00274854
866.0, 0.000235577
868.0, 0.00507136
870.0, 0.000878028
872.0, 0.000241657
874.0, 0.00310661
876.0, 0.0030378
878.0, 0.00248603
880.0, 0.0013672
882.0, 0.00358782
884.0, 0.00349967
886.0, 0.000523649
888.0, 0.00034367
890.0, 0.00498182
892.0, 0.00144384
894.0, 0.00407546
896.0, 0.00274502
898.0, 0.00290228
900.0, 0.00250969
902.0, 0.00115806
904.0, 0.00136307
906.0, 0.00386373
908.0, 0.00215299
910.0, 0.00069813
912.0, 0.00387554
914.0, 0.000487894
916.0, 0.00401599
918.0, 0.0015489
920.0, 0.00279895
922.0, 0.00157087
924.0, 0.0040531
926.0, 0.00173454
928.0, 0.00445847
930.0, 0.00499213
932.0, 0.00191777
934.0, 0.00259142
936.0, 0.00341174
938.0, 0.00290811
940.0, 0.00195453
942.0, 0.00411855
944.0, 0.00100314
946.0, 0.00184972
948.0, 0.00219318
950.0, 0.00203604
952.0, 0.00413312
954.0, 0.00354602
956.0, 0.00224476
958.0, 0.00145615
960.0, 0.00271215
962.0, 0.00372413
964.0, 0.00418687
966.0, 0.00181307
968.0, 0.00213998
970.0, 0.00392841
972.0, 0.000852648
974.0, 0.00205012
976.0, 7.85962e-05
978.0, 0.00140442
980.0, 0.000397
982.0, 0.000687076
984.0, 0.00503457
986.0, 0.00241389
988.0, 6.97174e-05
990.0, 0.00269927
992.0, 0.00370287
994.0, 0.00115723
996.0, 0.00434671
998.0, 0.00429195
1000.0, 0.00237116
1002.0, 0.00516033
1004.0, 0.00391057
1006.0, 0.00411259
1008.0, 0.000847534
1010.0, 0.00377075
1012.0, 0.000860176
1014.0, 0.00480712
1016.0, 0.0061756
1018.0, 0.00573997
1020.0, 0.00413278
1022.0, 0.00392867
1024.0, 0.00909239
1026.0, 0.0119596
1028.0, 0.0152151
1030.0, 0.013901
1032.0, 0.0186321
1034.0, 0.0248866
1036.0, 0.0322652
1038.0, 0.0694766
1040.0, 0.137568
1042.0, 0.244808
1044.0, 0.390969
1046.0, 0.605003
1048.0, 0.863898
1050.0, 0.934068
1052.0, 0.927919
1054.0, 0.509089
1056.0, 0.161934
1058.0, 0.0602735
1060.0, 0.0295817
1062.0, 0.0171825
1064.0, 0.0166217
1066.0, 0.00906346
1068.0, 0.00825044
1070.0, 0.00642062
1072.0, 0.00469447
1074.0, 0.00551723
1076.0, 0.00443791
1078.0, 0.00225044
1080.0, 0.00282262
1082.0, 0.00249064
1084.0, 0.00425126
1086.0, 0.0014767
1088.0, 0.0026705
1090.0, 0.00110772
1092.0, 0.0041776
1094.0, 0.000531502
1096.0, 0.00131481
1098.0, 0.000452656
1100.0, 0.00112751
1102.0, 0.00393496
1104.0, 0.00476933
1106.0, 0.00139452
1108.0, 0.00302021
1110.0, 0.00427671
1112.0, 0.00209493
1114.0, 0.00442236
1116.0, 0.000370918
1118.0, 0.001796
1120.0, 0.00152195
1122.0, 0.00283184
1124.0, 0.00399162
1126.0, 0.000876885
1128.0, 0.00279438
1130.0, 0.00392023
1132.0, 0.00337355
1134.0, 0.00140144
1136.0, 0.00384785
1138.0, 0.0003002
1140.0, 0.0042352
1142.0, 0.0047929
1144.0, 0.00131338
1146.0, 0.00272116
1148.0, 0.00172138
1150.0, 0.0047666
1152.0, 0.00222063
1154.0, 0.00545699
1156.0, 0.00328067
1158.0, 0.0012336
1160.0, 0.00336072
1162.0, 0.00258296
1164.0, 0.00376967
1166.0, 0.000428123
1168.0, 0.00313509
1170.0, 0.00225679
1172.0, 0.00487086
1174.0, 0.0030147
1176.0, 0.00397057
1178.0, 0.000348459
1180.0, 0.00140183
1182.0, 0.00498726
1184.0, 0.00104083
1186.0, 0.000350019
1188.0, 0.0034451
1190.0, 0.00283755
1192.0, 0.000420912
1194.0, 0.0076293
1196.0, 0.00477832
1198.0, 0.00435677
1200.0, 0.000809591
1202.0, 0.00563391
1204.0, 0.00691971
1206.0, 0.00877162
1208.0, 0.00732819
1210.0, 0.011225
1212.0, 0.0119202
1214.0, 0.0142841
1216.0, 0.0194631
1218.0, 0.0182144
1220.0, 0.0219435
1222.0, 0.0204047
1224.0, 0.0183891
1226.0, 0.0188844
1228.0, 0.0167955
1230.0, 0.0136719
1232.0, 0.00899647
1234.0, 0.00760659
1236.0, 0.00853508
1238.0, 0.0069976
1240.0, 0.00401109
1242.0, 0.00135187
1244.0, 0.00421406
1246.0, 0.00723142
1248.0, 0.00504511
1250.0, 0.00758088
1252.0, 0.00581871
1254.0, 0.0066132
1256.0, 0.00203864
1258.0, 0.00736431
1260.0, 0.00604221
1262.0, 0.00561585
1264.0, 0.00541601
1266.0, 0.00359511
1268.0, 0.00655767
1270.0, 0.00727178
1272.0, 0.00997915
1274.0, 0.00684107
1276.0, 0.00423799
1278.0, 0.00532714
1280.0, 0.0033291
1282.0, 0.00383704
1284.0, 0.00186668
1286.0, 0.00646107
1288.0, 0.000334073
1290.0, 0.00389177
1292.0, 0.00190112
1294.0, 0.00310194
1296.0, 0.00340757
1298.0, 0.00278445
1300.0, 0.00198969
1302.0, 0.00660871
1304.0, 0.00579734
1306.0, 0.00257883
1308.0, 0.00388239
1310.0, 0.00100154
1312, 0.0
1314, 0.0
1316, 0.0
1318, 0.0
1320, 0.0
1322, 0.0
1324, 0.0
1326, 0.0
1328, 0.0
1330, 0.0
1332, 0.0
1334, 0.0
1336, 0.0
1338, 0.0
1340, 0.0
1342, 0.0
1344, 0.0
1346, 0.0
1348, 0.0
1350, 0.0
1352, 0.0
1354, 0.0
1356, 0.0
1358, 0.0
1360, 0.0
1362, 0.0
1364, 0.0
1366, 0.0
1368, 0.0
1370, 0.0
1372, 0.0
1374, 0.0
1376, 0.0
1378, 0.0
1380, 0.0
1382, 0.0
1384, 0.0
1386, 0.0
1388, 0.0
1390, 0.0
1392, 0.0
1394, 0.0
1396, 0.0
1398, 0.0
1400, 0.0
1402, 0.0
1404, 0.0
1406, 0.0
1408, 0.0
1410, 0.0
1412, 0.0
1414, 0.0
1416, 0.0
1418, 0.0
1420, 0.0
1422, 0.0
1424, 0.0
1426, 0.0
1428, 0.0
1430, 0.0
1432, 0.0
1434, 0.0
1436, 0.0
1438, 0.0
1440, 0.0
1442, 0.0
1444, 0.0
1446, 0.0
1448, 0.0
1450, 0.0
1452, 0.0
1454, 0.0
1456, 0.0
1458, 0.0
1460, 0.0
1462, 0.0
1464, 0.0
1466, 0.0
1468, 0.0
1470, 0.0
1472, 0.0
1474, 0.0
1476, 0.0
1478, 0.0
1480, 0.0
1482, 0.0
1484, 0.0
1486, 0.0
1488, 0.0
1490, 0.0
1492, 0.0
1494, 0.0
1496, 0.0
1498, 0.0
1500, 0.0
1502, 0.0
1504, 0.0
1506, 0.0
1508, 0.0
1510, 0.0
1512, 0.0
1514, 0.0
1516, 0.0
1518, 0.0
1520, 0.0
1522, 0.0
1524, 0.0
1526, 0.0
1528, 0.0
1530, 0.0
1532, 0.0
1534, 0.0
1536, 0.0
1538, 0.0
1540, 0.0
1542, 0.0
1544, 0.0
1546, 0.0
1548, 0.0
1550, 0.0
1552, 0.0
1554, 0.0
1556, 0.0
1558, 0.0
1560, 0.0
1562, 0.0
1564, 0.0
1566, 0.0
1568, 0.0
1570, 0.0
1572, 0.0
1574, 0.0
1576, 0.0
1578, 0.0
1580, 0.0
1582, 0.0
1584, 0.0
1586, 0.0
1588, 0.0
1590, 0.0
1592, 0.0
1594, 0.0
1596, 0.0
1598, 0.0
1599, 0.0