File: raw data/Dataset_2/GlassPr/GlassPr__R110076__Raman__780__0__unoriented__Raman_Data_Processed__35486.txt
30, 0.0
32, 0.0
34, 0.0
36, 0.0
38, 0.0
40, 0.0
42, 0.0
44, 0.0
46, 0.0
48, 0.0
50, 0.0
52, 0.0
54, 0.0
56, 0.0
58, 0.0
60, 0.0
62, 0.0
64, 0.0
66, 0.0
68, 0.0
70, 0.0
72, 0.0
74, 0.0
76, 0.0
78, 0.0
80, 0.0
82, 0.0
84, 0.0
86, 0.0
88, 0.0
90, 0.0
92, 0.0
94, 0.0
96.0, 0.997564
98.0, 0.984112
100.0, 0.949942
102.0, 0.916893
104.0, 0.898098
106.0, 0.895077
108.0, 0.88607
110.0, 0.869333
112.0, 0.860939
114.0, 0.855729
116.0, 0.843402
118.0, 0.843864
120.0, 0.827841
122.0, 0.828584
124.0, 0.81634
126.0, 0.813737
128.0, 0.805483
130.0, 0.79822
132.0, 0.793016
134.0, 0.781089
136.0, 0.777686
138.0, 0.774389
140.0, 0.769077
142.0, 0.757723
144.0, 0.748281
146.0, 0.74363
148.0, 0.744911
150.0, 0.729184
152.0, 0.72964
154.0, 0.725669
156.0, 0.723903
158.0, 0.719402
160.0, 0.711978
162.0, 0.704714
164.0, 0.700177
166.0, 0.693182
168.0, 0.689891
170.0, 0.691025
172.0, 0.688788
174.0, 0.679168
176.0, 0.674294
178.0, 0.669691
180.0, 0.6695
182.0, 0.661191
184.0, 0.655652
186.0, 0.6532
188.0, 0.653547
190.0, 0.647046
192.0, 0.645433
194.0, 0.643007
196.0, 0.639148
198.0, 0.637558
200.0, 0.635354
202.0, 0.62848
204.0, 0.632551
206.0, 0.624784
208.0, 0.624285
210.0, 0.625077
212.0, 0.619753
214.0, 0.620368
216.0, 0.613758
218.0, 0.616715
220.0, 0.61468
222.0, 0.617491
224.0, 0.613519
226.0, 0.608044
228.0, 0.602152
230.0, 0.60787
232.0, 0.59837
234.0, 0.603184
236.0, 0.594922
238.0, 0.592906
240.0, 0.592794
242.0, 0.593692
244.0, 0.591086
246.0, 0.590863
248.0, 0.589155
250.0, 0.590131
252.0, 0.585195
254.0, 0.582574
256.0, 0.581421
258.0, 0.584011
260.0, 0.58234
262.0, 0.577512
264.0, 0.579782
266.0, 0.574336
268.0, 0.574741
270.0, 0.578013
272.0, 0.575461
274.0, 0.572341
276.0, 0.572042
278.0, 0.573039
280.0, 0.569276
282.0, 0.566229
284.0, 0.562283
286.0, 0.567668
288.0, 0.568567
290.0, 0.573565
292.0, 0.564197
294.0, 0.571835
296.0, 0.571585
298.0, 0.571948
300.0, 0.56701
302.0, 0.568737
304.0, 0.573024
306.0, 0.566737
308.0, 0.568546
310.0, 0.568065
312.0, 0.567814
314.0, 0.571922
316.0, 0.564836
318.0, 0.573358
320.0, 0.57047
322.0, 0.561927
324.0, 0.572248
326.0, 0.569089
328.0, 0.569054
330.0, 0.570263
332.0, 0.57074
334.0, 0.568934
336.0, 0.571372
338.0, 0.56579
340.0, 0.572561
342.0, 0.569925
344.0, 0.569876
346.0, 0.570006
348.0, 0.573437
350.0, 0.570889
352.0, 0.576834
354.0, 0.568464
356.0, 0.567444
358.0, 0.572607
360.0, 0.573513
362.0, 0.570465
364.0, 0.571988
366.0, 0.57443
368.0, 0.567054
370.0, 0.567881
372.0, 0.572106
374.0, 0.566395
376.0, 0.5636
378.0, 0.56582
380.0, 0.564028
382.0, 0.566494
384.0, 0.566794
386.0, 0.562418
388.0, 0.561556
390.0, 0.564014
392.0, 0.555517
394.0, 0.561208
396.0, 0.562787
398.0, 0.560957
400.0, 0.556498
402.0, 0.560932
404.0, 0.555929
406.0, 0.55475
408.0, 0.555727
410.0, 0.557468
412.0, 0.557045
414.0, 0.556394
416.0, 0.552941
418.0, 0.552419
420.0, 0.555049
422.0, 0.557413
424.0, 0.552745
426.0, 0.553418
428.0, 0.555819
430.0, 0.555433
432.0, 0.557377
434.0, 0.553325
436.0, 0.557607
438.0, 0.55584
440.0, 0.559777
442.0, 0.555561
444.0, 0.560444
446.0, 0.554663
448.0, 0.557333
450.0, 0.557058
452.0, 0.551601
454.0, 0.555595
456.0, 0.556308
458.0, 0.553638
460.0, 0.555113
462.0, 0.549815
464.0, 0.544058
466.0, 0.546732
468.0, 0.546587
470.0, 0.543109
472.0, 0.543986
474.0, 0.535216
476.0, 0.536412
478.0, 0.53125
480.0, 0.531966
482.0, 0.527409
484.0, 0.530365
486.0, 0.525753
488.0, 0.522816
490.0, 0.522491
492.0, 0.51687
494.0, 0.521022
496.0, 0.518096
498.0, 0.509357
500.0, 0.508309
502.0, 0.501921
504.0, 0.50772
506.0, 0.499844
508.0, 0.495319
510.0, 0.489727
512.0, 0.486809
514.0, 0.476893
516.0, 0.474013
518.0, 0.470903
520.0, 0.461538
522.0, 0.451614
524.0, 0.446632
526.0, 0.442866
528.0, 0.439275
530.0, 0.430027
532.0, 0.420811
534.0, 0.417995
536.0, 0.41161
538.0, 0.405361
540.0, 0.400812
542.0, 0.395101
544.0, 0.390654
546.0, 0.38244
548.0, 0.377405
550.0, 0.376721
552.0, 0.36901
554.0, 0.367384
556.0, 0.363695
558.0, 0.357971
560.0, 0.356382
562.0, 0.354279
564.0, 0.353189
566.0, 0.350316
568.0, 0.34614
570.0, 0.344295
572.0, 0.338759
574.0, 0.337225
576.0, 0.335443
578.0, 0.331384
580.0, 0.329401
582.0, 0.325884
584.0, 0.32284
586.0, 0.313517
588.0, 0.313047
590.0, 0.308465
592.0, 0.307523
594.0, 0.303439
596.0, 0.299864
598.0, 0.293176
600.0, 0.293691
602.0, 0.286127
604.0, 0.281737
606.0, 0.280007
608.0, 0.274395
610.0, 0.270358
612.0, 0.268588
614.0, 0.262449
616.0, 0.254664
618.0, 0.256799
620.0, 0.248338
622.0, 0.242423
624.0, 0.243263
626.0, 0.240856
628.0, 0.235793
630.0, 0.231802
632.0, 0.229951
634.0, 0.229454
636.0, 0.229367
638.0, 0.226171
640.0, 0.222318
642.0, 0.217447
644.0, 0.215825
646.0, 0.212208
648.0, 0.208226
650.0, 0.204607
652.0, 0.201696
654.0, 0.2005
656.0, 0.193937
658.0, 0.19694
660.0, 0.193041
662.0, 0.185695
664.0, 0.183539
666.0, 0.181392
668.0, 0.177034
670.0, 0.17549
672.0, 0.172726
674.0, 0.165536
676.0, 0.165885
678.0, 0.160824
680.0, 0.158332
682.0, 0.149921
684.0, 0.151576
686.0, 0.143203
688.0, 0.149391
690.0, 0.135135
692.0, 0.138705
694.0, 0.133292
696.0, 0.13272
698.0, 0.127881
700.0, 0.125658
702.0, 0.120918
704.0, 0.115505
706.0, 0.119986
708.0, 0.11596
710.0, 0.110477
712.0, 0.111122
714.0, 0.110606
716.0, 0.107061
718.0, 0.106086
720.0, 0.100703
722.0, 0.100285
724.0, 0.0976741
726.0, 0.0951531
728.0, 0.0963588
730.0, 0.093365
732.0, 0.0899183
734.0, 0.0904773
736.0, 0.0896294
738.0, 0.0853306
740.0, 0.0851202
742.0, 0.0825319
744.0, 0.0801057
746.0, 0.0789815
748.0, 0.0752976
750.0, 0.075376
752.0, 0.0792642
754.0, 0.0750473
756.0, 0.0729981
758.0, 0.073158
760.0, 0.0709619
762.0, 0.0709661
764.0, 0.0675743
766.0, 0.0661431
768.0, 0.0669339
770.0, 0.0666928
772.0, 0.0671394
774.0, 0.0648527
776.0, 0.0652075
778.0, 0.0598988
780.0, 0.0604883
782.0, 0.0594325
784.0, 0.0598672
786.0, 0.0599605
788.0, 0.0564303
790.0, 0.0527909
792.0, 0.0543624
794.0, 0.0499294
796.0, 0.0518797
798.0, 0.0489372
800.0, 0.0500591
802.0, 0.0448383
804.0, 0.0415554
806.0, 0.0449127
808.0, 0.0391244
810.0, 0.0387493
812.0, 0.0369943
814.0, 0.0337071
816.0, 0.031029
818.0, 0.0357045
820.0, 0.0261043
822.0, 0.0262287
824.0, 0.0244564
826.0, 0.0241164
828.0, 0.0220447
830.0, 0.0258227
832.0, 0.0201284
834.0, 0.0205267
836.0, 0.0239276
838.0, 0.0199708
840.0, 0.0223887
842.0, 0.0201385
844.0, 0.0197439
846.0, 0.0201597
848.0, 0.026914
850.0, 0.0276025
852.0, 0.0323328
854.0, 0.0286694
856.0, 0.0300662
858.0, 0.0358179
860.0, 0.0377169
862.0, 0.0390144
864.0, 0.0438756
866.0, 0.0468771
868.0, 0.0488259
870.0, 0.0533359
872.0, 0.0533955
874.0, 0.058847
876.0, 0.0603231
878.0, 0.0640503
880.0, 0.072949
882.0, 0.0717372
884.0, 0.0744588
886.0, 0.0769027
888.0, 0.0823786
890.0, 0.090368
892.0, 0.0899242
894.0, 0.0933094
896.0, 0.0954917
898.0, 0.102348
900.0, 0.105252
902.0, 0.105769
904.0, 0.116434
906.0, 0.117335
908.0, 0.117576
910.0, 0.123578
912.0, 0.128877
914.0, 0.131346
916.0, 0.134284
918.0, 0.139781
920.0, 0.140587
922.0, 0.14579
924.0, 0.149416
926.0, 0.152077
928.0, 0.151707
930.0, 0.16065
932.0, 0.159722
934.0, 0.160653
936.0, 0.163829
938.0, 0.16804
940.0, 0.166853
942.0, 0.170584
944.0, 0.173057
946.0, 0.174766
948.0, 0.176935
950.0, 0.178659
952.0, 0.187253
954.0, 0.183504
956.0, 0.184877
958.0, 0.188651
960.0, 0.191482
962.0, 0.188235
964.0, 0.192839
966.0, 0.190664
968.0, 0.194447
970.0, 0.194598
972.0, 0.19814
974.0, 0.200075
976.0, 0.198873
978.0, 0.201234
980.0, 0.203828
982.0, 0.207635
984.0, 0.206217
986.0, 0.206074
988.0, 0.210311
990.0, 0.211885
992.0, 0.211083
994.0, 0.215362
996.0, 0.214478
998.0, 0.215753
1000.0, 0.214526
1002.0, 0.215577
1004.0, 0.217553
1006.0, 0.21584
1008.0, 0.213881
1010.0, 0.218934
1012.0, 0.21639
1014.0, 0.217774
1016.0, 0.215169
1018.0, 0.214026
1020.0, 0.214307
1022.0, 0.212735
1024.0, 0.215873
1026.0, 0.215034
1028.0, 0.207052
1030.0, 0.209763
1032.0, 0.207827
1034.0, 0.20151
1036.0, 0.20224
1038.0, 0.198662
1040.0, 0.198764
1042.0, 0.196161
1044.0, 0.190804
1046.0, 0.186135
1048.0, 0.181891
1050.0, 0.180012
1052.0, 0.17399
1054.0, 0.172892
1056.0, 0.164471
1058.0, 0.161819
1060.0, 0.157748
1062.0, 0.152544
1064.0, 0.146933
1066.0, 0.14122
1068.0, 0.135861
1070.0, 0.134931
1072.0, 0.13093
1074.0, 0.122653
1076.0, 0.118713
1078.0, 0.113284
1080.0, 0.106561
1082.0, 0.102509
1084.0, 0.101499
1086.0, 0.0952919
1088.0, 0.0900352
1090.0, 0.0846735
1092.0, 0.0822921
1094.0, 0.0808316
1096.0, 0.0752439
1098.0, 0.0736641
1100.0, 0.0651292
1102.0, 0.0626856
1104.0, 0.0629693
1106.0, 0.0600742
1108.0, 0.0577873
1110.0, 0.0553903
1112.0, 0.05257
1114.0, 0.0465574
1116.0, 0.0496035
1118.0, 0.0443704
1120.0, 0.0413589
1122.0, 0.0394713
1124.0, 0.0398153
1126.0, 0.036758
1128.0, 0.0380288
1130.0, 0.0376969
1132.0, 0.0355828
1134.0, 0.0321927
1136.0, 0.0341366
1138.0, 0.0294779
1140.0, 0.0281617
1142.0, 0.027088
1144.0, 0.0274517
1146.0, 0.0217531
1148.0, 0.0280677
1150.0, 0.0242893
1152.0, 0.0218768
1154.0, 0.0222832
1156.0, 0.0180909
1158.0, 0.0179386
1160.0, 0.0238183
1162.0, 0.0208453
1164.0, 0.0178518
1166.0, 0.0190411
1168.0, 0.0176218
1170.0, 0.0168925
1172.0, 0.0211315
1174.0, 0.0174289
1176.0, 0.0161397
1178.0, 0.0155378
1180.0, 0.0130288
1182.0, 0.0140158
1184.0, 0.0136205
1186.0, 0.0141672
1188.0, 0.00886153
1190.0, 0.0159343
1192.0, 0.0125004
1194.0, 0.0113079
1196.0, 0.00741211
1198.0, 0.00929665
1200.0, 0.0119312
1202.0, 0.00868703
1204.0, 0.00996474
1206.0, 0.00609936
1208.0, 0.0121134
1210.0, 0.00753007
1212.0, 0.0066721
1214.0, 0.00564012
1216.0, 0.0047503
1218.0, 0.00623246
1220.0, 0.00739196
1222.0, 0.00455902
1224.0, 0.00532946
1226.0, 0.00273168
1228.0, 0.00534515
1230.0, 0.00793754
1232.0, 0.00597428
1234.0, 0.00493751
1236.0, 0.00691359
1238.0, 0.00266805
1240.0, 0.00294442
1242.0, 0.00267609
1244.0, 0.00534144
1246.0, 0.00387546
1248.0, 0.00274898
1250.0, 0.00619289
1252.0, 0.00507227
1254.0, 0.0034659
1256.0, 0.00600751
1258.0, 0.00388483
1260.0, 0.00391621
1262.0, 0.0052529
1264.0, 0.00617001
1266.0, 0.00617994
1268.0, 0.00728112
1270.0, 0.0065403
1272.0, 0.00741047
1274.0, 0.00580469
1276.0, 0.00712401
1278.0, 0.00641405
1280.0, 0.00334893
1282.0, 0.00902229
1284, 0.0
1286, 0.0
1288, 0.0
1290, 0.0
1292, 0.0
1294, 0.0
1296, 0.0
1298, 0.0
1300, 0.0
1302, 0.0
1304, 0.0
1306, 0.0
1308, 0.0
1310, 0.0
1312, 0.0
1314, 0.0
1316, 0.0
1318, 0.0
1320, 0.0
1322, 0.0
1324, 0.0
1326, 0.0
1328, 0.0
1330, 0.0
1332, 0.0
1334, 0.0
1336, 0.0
1338, 0.0
1340, 0.0
1342, 0.0
1344, 0.0
1346, 0.0
1348, 0.0
1350, 0.0
1352, 0.0
1354, 0.0
1356, 0.0
1358, 0.0
1360, 0.0
1362, 0.0
1364, 0.0
1366, 0.0
1368, 0.0
1370, 0.0
1372, 0.0
1374, 0.0
1376, 0.0
1378, 0.0
1380, 0.0
1382, 0.0
1384, 0.0
1386, 0.0
1388, 0.0
1390, 0.0
1392, 0.0
1394, 0.0
1396, 0.0
1398, 0.0
1400, 0.0
1402, 0.0
1404, 0.0
1406, 0.0
1408, 0.0
1410, 0.0
1412, 0.0
1414, 0.0
1416, 0.0
1418, 0.0
1420, 0.0
1422, 0.0
1424, 0.0
1426, 0.0
1428, 0.0
1430, 0.0
1432, 0.0
1434, 0.0
1436, 0.0
1438, 0.0
1440, 0.0
1442, 0.0
1444, 0.0
1446, 0.0
1448, 0.0
1450, 0.0
1452, 0.0
1454, 0.0
1456, 0.0
1458, 0.0
1460, 0.0
1462, 0.0
1464, 0.0
1466, 0.0
1468, 0.0
1470, 0.0
1472, 0.0
1474, 0.0
1476, 0.0
1478, 0.0
1480, 0.0
1482, 0.0
1484, 0.0
1486, 0.0
1488, 0.0
1490, 0.0
1492, 0.0
1494, 0.0
1496, 0.0
1498, 0.0
1500, 0.0
1502, 0.0
1504, 0.0
1506, 0.0
1508, 0.0
1510, 0.0
1512, 0.0
1514, 0.0
1516, 0.0
1518, 0.0
1520, 0.0
1522, 0.0
1524, 0.0
1526, 0.0
1528, 0.0
1530, 0.0
1532, 0.0
1534, 0.0
1536, 0.0
1538, 0.0
1540, 0.0
1542, 0.0
1544, 0.0
1546, 0.0
1548, 0.0
1550, 0.0
1552, 0.0
1554, 0.0
1556, 0.0
1558, 0.0
1560, 0.0
1562, 0.0
1564, 0.0
1566, 0.0
1568, 0.0
1570, 0.0
1572, 0.0
1574, 0.0
1576, 0.0
1578, 0.0
1580, 0.0
1582, 0.0
1584, 0.0
1586, 0.0
1588, 0.0
1590, 0.0
1592, 0.0
1594, 0.0
1596, 0.0
1598, 0.0
1599, 0.0