File: raw data/Dataset_2/GlassPr/GlassPr__R110076__Raman__532__0__unoriented__Raman_Data_Processed__35487.txt
30, 0.0
32, 0.0
34, 0.0
36, 0.0
38, 0.0
40, 0.0
42, 0.0
44, 0.0
46, 0.0
48, 0.0
50, 0.0
52, 0.0
54, 0.0
56, 0.0
58, 0.0
60, 0.0
62, 0.0
64, 0.0
66, 0.0
68, 0.0
70, 0.0
72, 0.0
74, 0.0
76, 0.0
78, 0.0
80, 0.0
82, 0.0
84, 0.0
86, 0.0
88, 0.0
90, 0.0
92, 0.0
94, 0.0
96, 0.0
98, 0.0
100, 0.0
102, 0.0
104, 0.0
106, 0.0
108, 0.0
110, 0.0
112, 0.0
114, 0.0
116, 0.0
118, 0.0
120, 0.0
122, 0.0
124, 0.0
126, 0.0
128, 0.0
130, 0.0
132, 0.0
134, 0.0
136, 0.0
138, 0.0
140, 0.0
142, 0.0
144, 0.0
146, 0.0
148, 0.0
150, 0.0
152, 0.0
154, 0.0
156, 0.0
158, 0.0
160, 0.0
162, 0.0
164, 0.0
166, 0.0
168, 0.0
170, 0.0
172, 0.0
174, 0.0
176, 0.0
178, 0.0
180, 0.0
182, 0.0
184, 0.0
186, 0.0
188, 0.0
190.0, 0.998388
192.0, 0.985225
194.0, 0.974321
196.0, 0.977287
198.0, 0.971612
200.0, 0.982111
202.0, 0.977752
204.0, 0.986745
206.0, 0.982643
208.0, 0.978088
210.0, 0.9873
212.0, 0.970412
214.0, 0.966406
216.0, 0.974525
218.0, 0.96355
220.0, 0.973907
222.0, 0.973415
224.0, 0.967072
226.0, 0.964172
228.0, 0.961415
230.0, 0.945488
232.0, 0.951501
234.0, 0.948841
236.0, 0.941894
238.0, 0.946203
240.0, 0.940808
242.0, 0.940623
244.0, 0.940957
246.0, 0.939119
248.0, 0.94436
250.0, 0.93894
252.0, 0.937204
254.0, 0.932319
256.0, 0.932006
258.0, 0.945644
260.0, 0.925568
262.0, 0.93455
264.0, 0.924995
266.0, 0.928875
268.0, 0.935191
270.0, 0.938168
272.0, 0.931423
274.0, 0.925493
276.0, 0.942011
278.0, 0.927711
280.0, 0.931732
282.0, 0.918614
284.0, 0.925428
286.0, 0.92247
288.0, 0.929739
290.0, 0.926697
292.0, 0.922597
294.0, 0.940408
296.0, 0.937406
298.0, 0.929302
300.0, 0.933811
302.0, 0.942475
304.0, 0.948928
306.0, 0.947303
308.0, 0.941267
310.0, 0.945508
312.0, 0.941123
314.0, 0.954395
316.0, 0.949416
318.0, 0.956408
320.0, 0.948657
322.0, 0.955958
324.0, 0.959353
326.0, 0.948442
328.0, 0.955791
330.0, 0.956554
332.0, 0.961351
334.0, 0.959183
336.0, 0.963428
338.0, 0.963556
340.0, 0.972481
342.0, 0.962804
344.0, 0.970202
346.0, 0.97545
348.0, 0.966876
350.0, 0.970794
352.0, 0.977477
354.0, 0.967351
356.0, 0.975251
358.0, 0.976196
360.0, 0.976599
362.0, 0.973282
364.0, 0.979051
366.0, 0.975136
368.0, 0.970148
370.0, 0.964736
372.0, 0.981238
374.0, 0.972717
376.0, 0.975996
378.0, 0.975287
380.0, 0.970334
382.0, 0.977727
384.0, 0.976847
386.0, 0.973042
388.0, 0.973374
390.0, 0.979649
392.0, 0.971
394.0, 0.975323
396.0, 0.975353
398.0, 0.971561
400.0, 0.97444
402.0, 0.97308
404.0, 0.976403
406.0, 0.97075
408.0, 0.973451
410.0, 0.976296
412.0, 0.977961
414.0, 0.981656
416.0, 0.974881
418.0, 0.975969
420.0, 0.971613
422.0, 0.969295
424.0, 0.976832
426.0, 0.979534
428.0, 0.980866
430.0, 0.977584
432.0, 0.983272
434.0, 0.977938
436.0, 0.986293
438.0, 0.986349
440.0, 0.98874
442.0, 0.988528
444.0, 0.99275
446.0, 0.987338
448.0, 0.993687
450.0, 0.99645
452.0, 0.988603
454.0, 0.991193
456.0, 0.991479
458.0, 0.988612
460.0, 0.987935
462.0, 0.986085
464.0, 0.980258
466.0, 0.981173
468.0, 0.981101
470.0, 0.977398
472.0, 0.982061
474.0, 0.966293
476.0, 0.967027
478.0, 0.96834
480.0, 0.965127
482.0, 0.960281
484.0, 0.968704
486.0, 0.964551
488.0, 0.960131
490.0, 0.960392
492.0, 0.956518
494.0, 0.959344
496.0, 0.961473
498.0, 0.945802
500.0, 0.944968
502.0, 0.935838
504.0, 0.934726
506.0, 0.929757
508.0, 0.926349
510.0, 0.914237
512.0, 0.910527
514.0, 0.898755
516.0, 0.893542
518.0, 0.886876
520.0, 0.877601
522.0, 0.861274
524.0, 0.860282
526.0, 0.852939
528.0, 0.849749
530.0, 0.834167
532.0, 0.819342
534.0, 0.818258
536.0, 0.8064
538.0, 0.791824
540.0, 0.795128
542.0, 0.784278
544.0, 0.773723
546.0, 0.773269
548.0, 0.753909
550.0, 0.748948
552.0, 0.748119
554.0, 0.741262
556.0, 0.734302
558.0, 0.723375
560.0, 0.719841
562.0, 0.725405
564.0, 0.712781
566.0, 0.711986
568.0, 0.704268
570.0, 0.696601
572.0, 0.691518
574.0, 0.684057
576.0, 0.682239
578.0, 0.675824
580.0, 0.679257
582.0, 0.663749
584.0, 0.665398
586.0, 0.657162
588.0, 0.640479
590.0, 0.640453
592.0, 0.642321
594.0, 0.634774
596.0, 0.628465
598.0, 0.615358
600.0, 0.609077
602.0, 0.597721
604.0, 0.595778
606.0, 0.586526
608.0, 0.582809
610.0, 0.57882
612.0, 0.564795
614.0, 0.563807
616.0, 0.555883
618.0, 0.548637
620.0, 0.547456
622.0, 0.533728
624.0, 0.524691
626.0, 0.523842
628.0, 0.517485
630.0, 0.51032
632.0, 0.507798
634.0, 0.507756
636.0, 0.504729
638.0, 0.501236
640.0, 0.499081
642.0, 0.489975
644.0, 0.481424
646.0, 0.487108
648.0, 0.48228
650.0, 0.473623
652.0, 0.465105
654.0, 0.464504
656.0, 0.459141
658.0, 0.45271
660.0, 0.456682
662.0, 0.452691
664.0, 0.440385
666.0, 0.442456
668.0, 0.4385
670.0, 0.424577
672.0, 0.422626
674.0, 0.426371
676.0, 0.413987
678.0, 0.410067
680.0, 0.406218
682.0, 0.400175
684.0, 0.396511
686.0, 0.394019
688.0, 0.38516
690.0, 0.386221
692.0, 0.369004
694.0, 0.371324
696.0, 0.367311
698.0, 0.371908
700.0, 0.356188
702.0, 0.353966
704.0, 0.350353
706.0, 0.342131
708.0, 0.34587
710.0, 0.341214
712.0, 0.33186
714.0, 0.328311
716.0, 0.332646
718.0, 0.329903
720.0, 0.320065
722.0, 0.32227
724.0, 0.316861
726.0, 0.31349
728.0, 0.311684
730.0, 0.315293
732.0, 0.312709
734.0, 0.304981
736.0, 0.306625
738.0, 0.303928
740.0, 0.305183
742.0, 0.297281
744.0, 0.296033
746.0, 0.294168
748.0, 0.292107
750.0, 0.286381
752.0, 0.284607
754.0, 0.287713
756.0, 0.289971
758.0, 0.290087
760.0, 0.282115
762.0, 0.28445
764.0, 0.28477
766.0, 0.282823
768.0, 0.277085
770.0, 0.276376
772.0, 0.275605
774.0, 0.278238
776.0, 0.278542
778.0, 0.273068
780.0, 0.273567
782.0, 0.264262
784.0, 0.269772
786.0, 0.26569
788.0, 0.267568
790.0, 0.267114
792.0, 0.257613
794.0, 0.261355
796.0, 0.259011
798.0, 0.250212
800.0, 0.246666
802.0, 0.249449
804.0, 0.246355
806.0, 0.243661
808.0, 0.233933
810.0, 0.232917
812.0, 0.231994
814.0, 0.22831
816.0, 0.231988
818.0, 0.224268
820.0, 0.22009
822.0, 0.218578
824.0, 0.216355
826.0, 0.203774
828.0, 0.206606
830.0, 0.201409
832.0, 0.211105
834.0, 0.206116
836.0, 0.206226
838.0, 0.199239
840.0, 0.200086
842.0, 0.20441
844.0, 0.201528
846.0, 0.207848
848.0, 0.201812
850.0, 0.207333
852.0, 0.209503
854.0, 0.223965
856.0, 0.221594
858.0, 0.226553
860.0, 0.227135
862.0, 0.233487
864.0, 0.24014
866.0, 0.24655
868.0, 0.247442
870.0, 0.253697
872.0, 0.259224
874.0, 0.265772
876.0, 0.277311
878.0, 0.277552
880.0, 0.283073
882.0, 0.287071
884.0, 0.293628
886.0, 0.308451
888.0, 0.309637
890.0, 0.319733
892.0, 0.318439
894.0, 0.331434
896.0, 0.335541
898.0, 0.337858
900.0, 0.34819
902.0, 0.354051
904.0, 0.368255
906.0, 0.373288
908.0, 0.379817
910.0, 0.386844
912.0, 0.391509
914.0, 0.399658
916.0, 0.410573
918.0, 0.411533
920.0, 0.417227
922.0, 0.423015
924.0, 0.4304
926.0, 0.43572
928.0, 0.436443
930.0, 0.449628
932.0, 0.450576
934.0, 0.451827
936.0, 0.458258
938.0, 0.461472
940.0, 0.462471
942.0, 0.462302
944.0, 0.472141
946.0, 0.481193
948.0, 0.480046
950.0, 0.486801
952.0, 0.488949
954.0, 0.486881
956.0, 0.496221
958.0, 0.496637
960.0, 0.506437
962.0, 0.503954
964.0, 0.503779
966.0, 0.515203
968.0, 0.518878
970.0, 0.515485
972.0, 0.522515
974.0, 0.518085
976.0, 0.527491
978.0, 0.523866
980.0, 0.526036
982.0, 0.533198
984.0, 0.530466
986.0, 0.53107
988.0, 0.540647
990.0, 0.536522
992.0, 0.539671
994.0, 0.542673
996.0, 0.544192
998.0, 0.544019
1000.0, 0.547794
1002.0, 0.543605
1004.0, 0.549736
1006.0, 0.546877
1008.0, 0.546818
1010.0, 0.54207
1012.0, 0.538943
1014.0, 0.548007
1016.0, 0.535386
1018.0, 0.539991
1020.0, 0.540794
1022.0, 0.544084
1024.0, 0.53747
1026.0, 0.524491
1028.0, 0.530808
1030.0, 0.523951
1032.0, 0.520779
1034.0, 0.526666
1036.0, 0.517802
1038.0, 0.503909
1040.0, 0.502121
1042.0, 0.490823
1044.0, 0.479277
1046.0, 0.478426
1048.0, 0.467998
1050.0, 0.464523
1052.0, 0.460758
1054.0, 0.450068
1056.0, 0.442462
1058.0, 0.430841
1060.0, 0.418296
1062.0, 0.40946
1064.0, 0.403536
1066.0, 0.38537
1068.0, 0.374081
1070.0, 0.366012
1072.0, 0.360201
1074.0, 0.343574
1076.0, 0.333465
1078.0, 0.326885
1080.0, 0.313535
1082.0, 0.307182
1084.0, 0.299569
1086.0, 0.284912
1088.0, 0.27666
1090.0, 0.26456
1092.0, 0.262146
1094.0, 0.251697
1096.0, 0.243232
1098.0, 0.238648
1100.0, 0.235421
1102.0, 0.220108
1104.0, 0.212103
1106.0, 0.210638
1108.0, 0.201864
1110.0, 0.19921
1112.0, 0.181785
1114.0, 0.184691
1116.0, 0.181072
1118.0, 0.172954
1120.0, 0.172316
1122.0, 0.163468
1124.0, 0.155756
1126.0, 0.151014
1128.0, 0.150261
1130.0, 0.143691
1132.0, 0.140576
1134.0, 0.13189
1136.0, 0.134447
1138.0, 0.133433
1140.0, 0.125986
1142.0, 0.129893
1144.0, 0.119975
1146.0, 0.117847
1148.0, 0.117396
1150.0, 0.110868
1152.0, 0.104371
1154.0, 0.104461
1156.0, 0.0986368
1158.0, 0.0937718
1160.0, 0.0925587
1162.0, 0.0958002
1164.0, 0.0862752
1166.0, 0.0859515
1168.0, 0.0804466
1170.0, 0.0808914
1172.0, 0.076631
1174.0, 0.0826739
1176.0, 0.0785212
1178.0, 0.0708768
1180.0, 0.073141
1182.0, 0.068476
1184.0, 0.0640133
1186.0, 0.069825
1188.0, 0.0625023
1190.0, 0.0599839
1192.0, 0.0542696
1194.0, 0.0505045
1196.0, 0.0520971
1198.0, 0.0554766
1200.0, 0.0514708
1202.0, 0.0414032
1204.0, 0.0468445
1206.0, 0.0426266
1208.0, 0.0441666
1210.0, 0.0387021
1212.0, 0.0358279
1214.0, 0.0368742
1216.0, 0.0331741
1218.0, 0.0324552
1220.0, 0.0312785
1222.0, 0.0287371
1224.0, 0.0325895
1226.0, 0.0207655
1228.0, 0.0250717
1230.0, 0.0221852
1232.0, 0.01604
1234.0, 0.0191523
1236.0, 0.0246923
1238.0, 0.014281
1240.0, 0.0182594
1242.0, 0.0107198
1244.0, 0.0157782
1246.0, 0.0193457
1248.0, 0.0145937
1250.0, 0.0126663
1252.0, 0.01631
1254.0, 0.00904195
1256.0, 0.0116094
1258.0, 0.0104356
1260.0, 0.0149231
1262.0, 0.0113569
1264.0, 0.0095314
1266.0, 0.0121594
1268.0, 0.013969
1270.0, 0.0101036
1272.0, 0.0110978
1274.0, 0.013043
1276.0, 0.00610139
1278.0, 0.0144773
1280.0, 0.00873083
1282.0, 0.00737723
1284.0, 0.00877034
1286.0, 0.00881908
1288.0, 0.0143239
1290.0, 0.00726776
1292.0, 0.0113036
1294.0, 0.0043915
1296.0, 0.0036089
1298.0, 0.00672197
1300.0, 0.00696084
1302.0, 0.00456131
1304, 0.0
1306, 0.0
1308, 0.0
1310, 0.0
1312, 0.0
1314, 0.0
1316, 0.0
1318, 0.0
1320, 0.0
1322, 0.0
1324, 0.0
1326, 0.0
1328, 0.0
1330, 0.0
1332, 0.0
1334, 0.0
1336, 0.0
1338, 0.0
1340, 0.0
1342, 0.0
1344, 0.0
1346, 0.0
1348, 0.0
1350, 0.0
1352, 0.0
1354, 0.0
1356, 0.0
1358, 0.0
1360, 0.0
1362, 0.0
1364, 0.0
1366, 0.0
1368, 0.0
1370, 0.0
1372, 0.0
1374, 0.0
1376, 0.0
1378, 0.0
1380, 0.0
1382, 0.0
1384, 0.0
1386, 0.0
1388, 0.0
1390, 0.0
1392, 0.0
1394, 0.0
1396, 0.0
1398, 0.0
1400, 0.0
1402, 0.0
1404, 0.0
1406, 0.0
1408, 0.0
1410, 0.0
1412, 0.0
1414, 0.0
1416, 0.0
1418, 0.0
1420, 0.0
1422, 0.0
1424, 0.0
1426, 0.0
1428, 0.0
1430, 0.0
1432, 0.0
1434, 0.0
1436, 0.0
1438, 0.0
1440, 0.0
1442, 0.0
1444, 0.0
1446, 0.0
1448, 0.0
1450, 0.0
1452, 0.0
1454, 0.0
1456, 0.0
1458, 0.0
1460, 0.0
1462, 0.0
1464, 0.0
1466, 0.0
1468, 0.0
1470, 0.0
1472, 0.0
1474, 0.0
1476, 0.0
1478, 0.0
1480, 0.0
1482, 0.0
1484, 0.0
1486, 0.0
1488, 0.0
1490, 0.0
1492, 0.0
1494, 0.0
1496, 0.0
1498, 0.0
1500, 0.0
1502, 0.0
1504, 0.0
1506, 0.0
1508, 0.0
1510, 0.0
1512, 0.0
1514, 0.0
1516, 0.0
1518, 0.0
1520, 0.0
1522, 0.0
1524, 0.0
1526, 0.0
1528, 0.0
1530, 0.0
1532, 0.0
1534, 0.0
1536, 0.0
1538, 0.0
1540, 0.0
1542, 0.0
1544, 0.0
1546, 0.0
1548, 0.0
1550, 0.0
1552, 0.0
1554, 0.0
1556, 0.0
1558, 0.0
1560, 0.0
1562, 0.0
1564, 0.0
1566, 0.0
1568, 0.0
1570, 0.0
1572, 0.0
1574, 0.0
1576, 0.0
1578, 0.0
1580, 0.0
1582, 0.0
1584, 0.0
1586, 0.0
1588, 0.0
1590, 0.0
1592, 0.0
1594, 0.0
1596, 0.0
1598, 0.0
1599, 0.0