File: raw data/Dataset_2/Ferroholmquistite/Ferroholmquistite__R070005__Raman__785__0__unoriented__Raman_Data_Processed__16760.txt
30, 0.0
32, 0.0
34, 0.0
36, 0.0
38, 0.0
40, 0.0
42, 0.0
44, 0.0
46, 0.0
48, 0.0
50, 0.0
52, 0.0
54, 0.0
56, 0.0
58, 0.0
60, 0.0
62, 0.0
64, 0.0
66, 0.0
68, 0.0
70, 0.0
72, 0.0
74, 0.0
76, 0.0
78, 0.0
80, 0.0
82, 0.0
84, 0.0
86, 0.0
88, 0.0
90, 0.0
92, 0.0
94, 0.0
96, 0.0
98, 0.0
100, 0.0
102, 0.0
104, 0.0
106, 0.0
108, 0.0
110, 0.0
112, 0.0
114, 0.0
116, 0.0
118, 0.0
120, 0.0
122, 0.0
124, 0.0
126, 0.0
128, 0.0
130, 0.0
132, 0.0
134, 0.0
136, 0.0
138, 0.0
140, 0.0
142, 0.0
144, 0.0
146, 0.0
148, 0.0
150, 0.0
152, 0.0
154, 0.0
156.0, 0.0101167
158.0, 0.00316951
160.0, 0.00437553
162.0, 0.0361232
164.0, 0.0750547
166.0, 0.128851
168.0, 0.176741
170.0, 0.22874
172.0, 0.269658
174.0, 0.329908
176.0, 0.37415
178.0, 0.431206
180.0, 0.496419
182.0, 0.594958
184.0, 0.693025
186.0, 0.801878
188.0, 0.913374
190.0, 0.99053
192.0, 0.969032
194.0, 0.832092
196.0, 0.66189
198.0, 0.521958
200.0, 0.425674
202.0, 0.362133
204.0, 0.312098
206.0, 0.273125
208.0, 0.256848
210.0, 0.214797
212.0, 0.200985
214.0, 0.177973
216.0, 0.150394
218.0, 0.150087
220.0, 0.144003
222.0, 0.138486
224.0, 0.132684
226.0, 0.120431
228.0, 0.11647
230.0, 0.0985692
232.0, 0.104703
234.0, 0.101693
236.0, 0.106451
238.0, 0.105956
240.0, 0.106768
242.0, 0.1002
244.0, 0.108534
246.0, 0.0977641
248.0, 0.0914746
250.0, 0.0791232
252.0, 0.0812016
254.0, 0.0678806
256.0, 0.066035
258.0, 0.0613446
260.0, 0.055635
262.0, 0.0513339
264.0, 0.0444197
266.0, 0.0371835
268.0, 0.0313654
270.0, 0.0321568
272.0, 0.0122313
274.0, 0.00458591
276.0, 0.00547716
278.0, 0.00577879
280.0, 0.000390524
282.0, 0.00638068
284.0, 0.00176466
286.0, 0.0110226
288.0, 0.0113553
290.0, 0.0126947
292.0, 0.0147777
294.0, 0.0235173
296.0, 0.0207789
298.0, 0.00862156
300.0, 0.00993039
302.0, 0.0113909
304.0, 0.0196796
306.0, 0.0158678
308.0, 0.0127918
310.0, 0.00276408
312.0, 0.00131578
314.0, 0.00136232
316.0, 0.0173889
318.0, 0.00444439
320.0, 0.0126624
322.0, 0.0124729
324.0, 0.00414513
326.0, 0.0038037
328.0, 0.00780186
330.0, 0.0135258
332.0, 0.0213309
334.0, 0.0303652
336.0, 0.0336849
338.0, 0.0469141
340.0, 0.0518209
342.0, 0.0554479
344.0, 0.0581916
346.0, 0.0505909
348.0, 0.0571076
350.0, 0.0521802
352.0, 0.0535785
354.0, 0.041255
356.0, 0.0453342
358.0, 0.0377713
360.0, 0.0325035
362.0, 0.0220383
364.0, 0.0201576
366.0, 0.0155728
368.0, 0.0265464
370.0, 0.0346595
372.0, 0.045477
374.0, 0.0587008
376.0, 0.0601567
378.0, 0.0827038
380.0, 0.10002
382.0, 0.124743
384.0, 0.149461
386.0, 0.154753
388.0, 0.142099
390.0, 0.127784
392.0, 0.0945822
394.0, 0.0803357
396.0, 0.0716598
398.0, 0.0562294
400.0, 0.0571902
402.0, 0.0461181
404.0, 0.0482278
406.0, 0.0454462
408.0, 0.0405581
410.0, 0.0476521
412.0, 0.0494232
414.0, 0.054721
416.0, 0.0630373
418.0, 0.0726363
420.0, 0.0829452
422.0, 0.0813764
424.0, 0.053659
426.0, 0.0425018
428.0, 0.0196317
430.0, 0.00952649
432.0, 0.00635619
434.0, 0.00201827
436.0, 0.00435144
438.0, 0.00885134
440.0, 0.00365258
442.0, 0.0096644
444.0, 0.00145346
446.0, 0.00362145
448.0, 0.0125261
450.0, 0.0246389
452.0, 0.0248101
454.0, 0.0242453
456.0, 0.013015
458.0, 0.0113667
460.0, 0.0160272
462.0, 0.0179137
464.0, 0.0168662
466.0, 0.011417
468.0, 0.0260438
470.0, 0.0122942
472.0, 0.00932067
474.0, 0.0087014
476.0, 0.00345341
478.0, 0.00250213
480.0, 0.00399733
482.0, 0.00127587
484.0, 0.00671696
486.0, 0.0145635
488.0, 0.00733898
490.0, 0.010004
492.0, 0.0223468
494.0, 0.0180607
496.0, 0.0252033
498.0, 0.0223904
500.0, 0.0156922
502.0, 0.00460114
504.0, 0.00899617
506.0, 0.00667021
508.0, 0.00450334
510.0, 0.00116228
512.0, 0.00227126
514.0, 0.00128458
516.0, 0.0098851
518.0, 0.00169266
520.0, 0.00638657
522.0, 0.0136764
524.0, 0.0167341
526.0, 0.0271291
528.0, 0.01559
530.0, 0.0374342
532.0, 0.0255339
534.0, 0.0274824
536.0, 0.0389295
538.0, 0.0298824
540.0, 0.0327893
542.0, 0.028515
544.0, 0.037859
546.0, 0.043232
548.0, 0.0440701
550.0, 0.0473077
552.0, 0.0499315
554.0, 0.051553
556.0, 0.038221
558.0, 0.0458309
560.0, 0.0287952
562.0, 0.0257445
564.0, 0.0214886
566.0, 0.0108471
568.0, 0.0140346
570.0, 0.00744938
572.0, 0.00494549
574.0, 0.00980345
576.0, 0.0161749
578.0, 0.00124649
580.0, 0.0100329
582.0, 0.00939935
584.0, 0.00411856
586.0, 0.00224572
588.0, 0.00433893
590.0, 0.0128096
592.0, 0.0026883
594.0, 0.0039752
596.0, 0.0155064
598.0, 0.011608
600.0, 0.0231245
602.0, 0.0304384
604.0, 0.0300114
606.0, 0.0354094
608.0, 0.0412945
610.0, 0.0474886
612.0, 0.0467216
614.0, 0.031151
616.0, 0.0227761
618.0, 0.0124643
620.0, 0.0120606
622.0, 0.00753411
624.0, 0.00168136
626.0, 0.00408587
628.0, 0.00583992
630.0, 0.00596759
632.0, 0.00594022
634.0, 0.00116651
636.0, 0.00314466
638.0, 0.00330099
640.0, 0.0120575
642.0, 0.00893001
644.0, 0.0133691
646.0, 0.0158664
648.0, 0.0231597
650.0, 0.0277909
652.0, 0.029404
654.0, 0.0469312
656.0, 0.0686465
658.0, 0.0874463
660.0, 0.110935
662.0, 0.161915
664.0, 0.22426
666.0, 0.290993
668.0, 0.385202
670.0, 0.502626
672.0, 0.617648
674.0, 0.717003
676.0, 0.753771
678.0, 0.661383
680.0, 0.522186
682.0, 0.384485
684.0, 0.273503
686.0, 0.219468
688.0, 0.160795
690.0, 0.134152
692.0, 0.111131
694.0, 0.102818
696.0, 0.101856
698.0, 0.0978841
700.0, 0.090426
702.0, 0.0850186
704.0, 0.0794452
706.0, 0.0671514
708.0, 0.0662466
710.0, 0.043686
712.0, 0.0545459
714.0, 0.0309729
716.0, 0.0286528
718.0, 0.0237446
720.0, 0.0277235
722.0, 0.0173306
724.0, 0.0112341
726.0, 0.0164074
728.0, 0.0108282
730.0, 0.0142837
732.0, 0.0116201
734.0, 0.011649
736.0, 0.0202921
738.0, 0.0166093
740.0, 0.0246255
742.0, 0.0244875
744.0, 0.0297391
746.0, 0.0297311
748.0, 0.0290955
750.0, 0.0353
752.0, 0.0245651
754.0, 0.0183707
756.0, 0.0105185
758.0, 0.0141086
760.0, 0.00416832
762.0, 0.00201435
764.0, 0.000439568
766.0, 0.00243883
768.0, 0.00160325
770.0, 0.00339542
772.0, 0.00554917
774.0, 0.00520064
776.0, 0.00152929
778.0, 0.00818395
780.0, 0.009242
782.0, 0.0194629
784.0, 0.0202543
786.0, 0.0212731
788.0, 0.0298761
790.0, 0.0339538
792.0, 0.0276842
794.0, 0.0245248
796.0, 0.0232579
798.0, 0.0158612
800.0, 0.0104595
802.0, 0.0151477
804.0, 0.0143798
806.0, 0.00888126
808.0, 0.00431594
810.0, 0.00286878
812.0, 0.0109135
814.0, 0.00661335
816.0, 0.00698398
818.0, 0.0103433
820.0, 0.00754426
822.0, 0.00255007
824.0, 0.00810255
826.0, 0.0131576
828.0, 0.00518352
830.0, 0.00692407
832.0, 0.00701569
834.0, 0.00552722
836.0, 0.00239462
838.0, 0.0160175
840.0, 0.00833712
842.0, 0.00638739
844.0, 0.0106649
846.0, 0.00431234
848.0, 0.00580381
850.0, 0.00795241
852.0, 0.00840925
854.0, 0.00742238
856.0, 0.0118015
858.0, 0.00670134
860.0, 0.00880471
862.0, 0.0130063
864.0, 0.0137882
866.0, 0.0103684
868.0, 0.0192148
870.0, 0.0214658
872.0, 0.0207164
874.0, 0.027232
876.0, 0.0246564
878.0, 0.0347921
880.0, 0.0264763
882.0, 0.0282631
884.0, 0.0341734
886.0, 0.0288566
888.0, 0.0391667
890.0, 0.0301704
892.0, 0.0255557
894.0, 0.0176005
896.0, 0.0194451
898.0, 0.0206127
900.0, 0.0176105
902.0, 0.0123257
904.0, 0.0139354
906.0, 0.0179505
908.0, 0.016863
910.0, 0.0145209
912.0, 0.01104
914.0, 0.0161931
916.0, 0.0053034
918.0, 0.00896765
920.0, 0.00529763
922.0, 0.00204601
924.0, 0.00420851
926.0, 0.00314975
928.0, 0.00227865
930.0, 0.00276558
932.0, 0.0102233
934.0, 0.00539438
936.0, 0.0053018
938.0, 0.00182853
940.0, 0.00429041
942.0, 0.00283971
944.0, 0.00143945
946.0, 0.00646845
948.0, 0.00162895
950.0, 0.002416
952.0, 0.00435025
954.0, 0.00508456
956.0, 0.00115397
958.0, 0.00491397
960.0, 0.00424849
962.0, 0.00139207
964.0, 0.00111688
966.0, 0.00596155
968.0, 0.00104578
970.0, 0.000603241
972.0, 0.00932431
974.0, 0.00438512
976.0, 0.00301487
978.0, 0.00518757
980.0, 0.0146695
982.0, 0.0132872
984.0, 0.0305374
986.0, 0.031991
988.0, 0.0417071
990.0, 0.0443047
992.0, 0.0612782
994.0, 0.0604082
996.0, 0.0661574
998.0, 0.0518687
1000.0, 0.0413902
1002.0, 0.0322256
1004.0, 0.0271948
1006.0, 0.0282518
1008.0, 0.0301432
1010.0, 0.0241577
1012.0, 0.0241063
1014.0, 0.0222288
1016.0, 0.0389973
1018.0, 0.0333939
1020.0, 0.0378044
1022.0, 0.0380571
1024.0, 0.0478776
1026.0, 0.0410204
1028.0, 0.04611
1030.0, 0.0389886
1032.0, 0.0445874
1034.0, 0.0548626
1036.0, 0.0611132
1038.0, 0.0661409
1040.0, 0.0651105
1042.0, 0.0589084
1044.0, 0.0652419
1046.0, 0.0612672
1048.0, 0.0726532
1050.0, 0.0682413
1052.0, 0.0701495
1054.0, 0.0928299
1056.0, 0.103805
1058.0, 0.107821
1060.0, 0.120309
1062.0, 0.111988
1064.0, 0.102972
1066.0, 0.0721419
1068.0, 0.0626077
1070.0, 0.0438934
1072.0, 0.0395745
1074.0, 0.0399306
1076.0, 0.0172277
1078.0, 0.019881
1080.0, 0.0141842
1082.0, 0.00875274
1084.0, 0.0186399
1086.0, 0.00733612
1088.0, 0.00164227
1090.0, 0.0016295
1092.0, 0.00393124
1094.0, 0.00324291
1096.0, 0.00117424
1098.0, 0.00593906
1100.0, 0.00435292
1102.0, 0.00133329
1104.0, 0.00985387
1106.0, 0.00142901
1108.0, 0.00338312
1110.0, 0.00125173
1112.0, 0.0029983
1114.0, 0.0010307
1116.0, 0.0133284
1118.0, 0.0112797
1120.0, 0.00722647
1122.0, 0.012664
1124.0, 0.0204358
1126.0, 0.0155335
1128.0, 0.0174523
1130.0, 0.011534
1132.0, 0.0130069
1134.0, 0.00634645
1136.0, 0.011516
1138.0, 0.00700985
1140.0, 0.0100564
1142.0, 0.00419139
1144.0, 0.00570581
1146.0, 0.00608842
1148.0, 0.00657045
1150.0, 0.00529192
1152.0, 0.0139994
1154.0, 0.0115625
1156.0, 0.0054361
1158.0, 0.0101384
1160.0, 0.00140256
1162.0, 0.00402442
1164.0, 0.000804996
1166.0, 0.00776495
1168.0, 0.000119646
1170.0, 0.00705282
1172.0, 0.00360235
1174.0, 0.00620382
1176.0, 0.0013514
1178.0, 0.00480275
1180.0, 0.00245129
1182.0, 0.00515963
1184.0, 0.00746918
1186.0, 0.00331076
1188.0, 0.00246766
1190.0, 0.00954703
1192.0, 0.0157466
1194.0, 0.00579353
1196.0, 0.00509694
1198.0, 0.00747524
1200.0, 0.00707056
1202.0, 0.0150267
1204.0, 0.0130752
1206.0, 0.00941666
1208.0, 0.00655027
1210.0, 0.00574783
1212.0, 0.00231858
1214.0, 0.00784552
1216.0, 0.00879886
1218.0, 0.0133203
1220.0, 0.00221109
1222.0, 0.0117969
1224.0, 0.00781506
1226.0, 0.00822429
1228.0, 0.00206949
1230.0, 0.00686259
1232.0, 0.00908476
1234.0, 0.00879657
1236.0, 0.0101227
1238.0, 0.00240499
1240.0, 0.00112126
1242.0, 0.00213318
1244.0, 0.000736968
1246.0, 0.00120055
1248, 0.0
1250, 0.0
1252, 0.0
1254, 0.0
1256, 0.0
1258, 0.0
1260, 0.0
1262, 0.0
1264, 0.0
1266, 0.0
1268, 0.0
1270, 0.0
1272, 0.0
1274, 0.0
1276, 0.0
1278, 0.0
1280, 0.0
1282, 0.0
1284, 0.0
1286, 0.0
1288, 0.0
1290, 0.0
1292, 0.0
1294, 0.0
1296, 0.0
1298, 0.0
1300, 0.0
1302, 0.0
1304, 0.0
1306, 0.0
1308, 0.0
1310, 0.0
1312, 0.0
1314, 0.0
1316, 0.0
1318, 0.0
1320, 0.0
1322, 0.0
1324, 0.0
1326, 0.0
1328, 0.0
1330, 0.0
1332, 0.0
1334, 0.0
1336, 0.0
1338, 0.0
1340, 0.0
1342, 0.0
1344, 0.0
1346, 0.0
1348, 0.0
1350, 0.0
1352, 0.0
1354, 0.0
1356, 0.0
1358, 0.0
1360, 0.0
1362, 0.0
1364, 0.0
1366, 0.0
1368, 0.0
1370, 0.0
1372, 0.0
1374, 0.0
1376, 0.0
1378, 0.0
1380, 0.0
1382, 0.0
1384, 0.0
1386, 0.0
1388, 0.0
1390, 0.0
1392, 0.0
1394, 0.0
1396, 0.0
1398, 0.0
1400, 0.0
1402, 0.0
1404, 0.0
1406, 0.0
1408, 0.0
1410, 0.0
1412, 0.0
1414, 0.0
1416, 0.0
1418, 0.0
1420, 0.0
1422, 0.0
1424, 0.0
1426, 0.0
1428, 0.0
1430, 0.0
1432, 0.0
1434, 0.0
1436, 0.0
1438, 0.0
1440, 0.0
1442, 0.0
1444, 0.0
1446, 0.0
1448, 0.0
1450, 0.0
1452, 0.0
1454, 0.0
1456, 0.0
1458, 0.0
1460, 0.0
1462, 0.0
1464, 0.0
1466, 0.0
1468, 0.0
1470, 0.0
1472, 0.0
1474, 0.0
1476, 0.0
1478, 0.0
1480, 0.0
1482, 0.0
1484, 0.0
1486, 0.0
1488, 0.0
1490, 0.0
1492, 0.0
1494, 0.0
1496, 0.0
1498, 0.0
1500, 0.0
1502, 0.0
1504, 0.0
1506, 0.0
1508, 0.0
1510, 0.0
1512, 0.0
1514, 0.0
1516, 0.0
1518, 0.0
1520, 0.0
1522, 0.0
1524, 0.0
1526, 0.0
1528, 0.0
1530, 0.0
1532, 0.0
1534, 0.0
1536, 0.0
1538, 0.0
1540, 0.0
1542, 0.0
1544, 0.0
1546, 0.0
1548, 0.0
1550, 0.0
1552, 0.0
1554, 0.0
1556, 0.0
1558, 0.0
1560, 0.0
1562, 0.0
1564, 0.0
1566, 0.0
1568, 0.0
1570, 0.0
1572, 0.0
1574, 0.0
1576, 0.0
1578, 0.0
1580, 0.0
1582, 0.0
1584, 0.0
1586, 0.0
1588, 0.0
1590, 0.0
1592, 0.0
1594, 0.0
1596, 0.0
1598, 0.0
1599, 0.0