File: raw data/Dataset_2/Ferroholmquistite/Ferroholmquistite__R070005__Raman__532__0__unoriented__Raman_Data_Processed__16756.txt
30, 0.0
32, 0.0
34, 0.0
36, 0.0
38, 0.0
40, 0.0
42, 0.0
44, 0.0
46, 0.0
48, 0.0
50, 0.0
52, 0.0
54, 0.0
56, 0.0
58, 0.0
60, 0.0
62, 0.0
64, 0.0
66, 0.0
68, 0.0
70, 0.0
72, 0.0
74, 0.0
76, 0.0
78, 0.0
80, 0.0
82, 0.0
84, 0.0
86, 0.0
88, 0.0
90, 0.0
92, 0.0
94, 0.0
96, 0.0
98, 0.0
100, 0.0
102, 0.0
104, 0.0
106, 0.0
108, 0.0
110, 0.0
112, 0.0
114, 0.0
116, 0.0
118, 0.0
120, 0.0
122, 0.0
124, 0.0
126, 0.0
128, 0.0
130, 0.0
132, 0.0
134, 0.0
136, 0.0
138, 0.0
140, 0.0
142, 0.0
144, 0.0
146, 0.0
148, 0.0
150, 0.0
152, 0.0
154, 0.0
156, 0.0
158, 0.0
160, 0.0
162, 0.0
164, 0.0
166, 0.0
168, 0.0
170, 0.0
172, 0.0
174, 0.0
176.0, 0.00914723
178.0, 0.0501775
180.0, 0.115952
182.0, 0.191416
184.0, 0.275928
186.0, 0.368138
188.0, 0.431065
190.0, 0.471614
192.0, 0.444608
194.0, 0.343054
196.0, 0.22446
198.0, 0.143545
200.0, 0.0986049
202.0, 0.0757097
204.0, 0.0523321
206.0, 0.0412685
208.0, 0.0333505
210.0, 0.0256471
212.0, 0.0180957
214.0, 0.0237868
216.0, 0.0119923
218.0, 0.00185491
220.0, 0.00178557
222.0, 0.00691893
224.0, 0.00905738
226.0, 0.0108592
228.0, 0.00677431
230.0, 0.00167337
232.0, 0.000351863
234.0, 0.00350553
236.0, 0.0150966
238.0, 0.0202709
240.0, 0.0209289
242.0, 0.0324385
244.0, 0.0297202
246.0, 0.0382314
248.0, 0.0383221
250.0, 0.039828
252.0, 0.0413922
254.0, 0.0433053
256.0, 0.048081
258.0, 0.0431593
260.0, 0.039941
262.0, 0.0345274
264.0, 0.0327
266.0, 0.0299899
268.0, 0.0186524
270.0, 0.0185556
272.0, 0.00854661
274.0, 0.0170624
276.0, 0.0136
278.0, 0.0134295
280.0, 0.0179353
282.0, 0.0133431
284.0, 0.0164295
286.0, 0.0137373
288.0, 0.0190712
290.0, 0.0274387
292.0, 0.024446
294.0, 0.0280328
296.0, 0.026955
298.0, 0.0240646
300.0, 0.024146
302.0, 0.0215981
304.0, 0.0168158
306.0, 0.0177663
308.0, 0.0146927
310.0, 0.00971929
312.0, 0.00446922
314.0, 0.00544
316.0, 0.00496697
318.0, 0.00397139
320.0, 0.00128942
322.0, 0.00336093
324.0, 0.00527529
326.0, 0.00978703
328.0, 0.0130172
330.0, 0.0172351
332.0, 0.0299199
334.0, 0.0385676
336.0, 0.0494727
338.0, 0.0521954
340.0, 0.0527543
342.0, 0.0597879
344.0, 0.0610365
346.0, 0.0571731
348.0, 0.0478642
350.0, 0.0312721
352.0, 0.03079
354.0, 0.0201398
356.0, 0.0192482
358.0, 0.0158272
360.0, 0.0138939
362.0, 0.0162034
364.0, 0.0173571
366.0, 0.0197484
368.0, 0.0258016
370.0, 0.0439754
372.0, 0.0676974
374.0, 0.0850964
376.0, 0.131307
378.0, 0.16148
380.0, 0.20435
382.0, 0.238693
384.0, 0.265471
386.0, 0.274906
388.0, 0.254605
390.0, 0.213118
392.0, 0.163051
394.0, 0.141656
396.0, 0.117332
398.0, 0.0997999
400.0, 0.093673
402.0, 0.0908679
404.0, 0.08156
406.0, 0.0825263
408.0, 0.0758778
410.0, 0.087445
412.0, 0.0769116
414.0, 0.0831959
416.0, 0.0784437
418.0, 0.0986355
420.0, 0.0942389
422.0, 0.08628
424.0, 0.0697533
426.0, 0.0444259
428.0, 0.0264379
430.0, 0.0104157
432.0, 0.0019895
434.0, 0.00111068
436.0, 0.00111256
438.0, 0.000900557
440.0, 0.000915866
442.0, 0.00788051
444.0, 0.00884659
446.0, 0.0161066
448.0, 0.0251353
450.0, 0.0274016
452.0, 0.0388717
454.0, 0.0353267
456.0, 0.0310616
458.0, 0.0241384
460.0, 0.0118941
462.0, 0.0143857
464.0, 0.0158448
466.0, 0.00313899
468.0, 0.00865486
470.0, 0.00265473
472.0, 0.00252125
474.0, 0.00497562
476.0, 0.00186765
478.0, 0.00237114
480.0, 0.0109983
482.0, 0.00159963
484.0, 0.00370712
486.0, 0.00300721
488.0, 0.000904814
490.0, 0.0195645
492.0, 0.0142539
494.0, 0.0279474
496.0, 0.0221463
498.0, 0.0253059
500.0, 0.0232114
502.0, 0.0251415
504.0, 0.0111106
506.0, 0.00439555
508.0, 0.00485767
510.0, 0.00252574
512.0, 0.00685107
514.0, 0.00530839
516.0, 0.00183681
518.0, 0.00992688
520.0, 0.0188897
522.0, 0.0177757
524.0, 0.0259656
526.0, 0.0303024
528.0, 0.0405604
530.0, 0.0367965
532.0, 0.0405402
534.0, 0.0388501
536.0, 0.0395221
538.0, 0.0400949
540.0, 0.0417266
542.0, 0.0436854
544.0, 0.0416923
546.0, 0.0344763
548.0, 0.0513425
550.0, 0.0449403
552.0, 0.0439919
554.0, 0.0429571
556.0, 0.0358684
558.0, 0.0296664
560.0, 0.0296033
562.0, 0.033423
564.0, 0.0205305
566.0, 0.0240668
568.0, 0.0206953
570.0, 0.0162934
572.0, 0.00159435
574.0, 0.0198505
576.0, 0.0256954
578.0, 0.0205612
580.0, 0.0180946
582.0, 0.0188393
584.0, 0.0171262
586.0, 0.0146628
588.0, 0.0223798
590.0, 0.020478
592.0, 0.0188785
594.0, 0.035272
596.0, 0.0322422
598.0, 0.0404333
600.0, 0.0403881
602.0, 0.0593902
604.0, 0.06818
606.0, 0.0767258
608.0, 0.0725154
610.0, 0.0724851
612.0, 0.0709001
614.0, 0.0577399
616.0, 0.0378911
618.0, 0.022686
620.0, 0.0119708
622.0, 0.0160893
624.0, 0.00463425
626.0, 0.00580881
628.0, 0.00337963
630.0, 0.00873839
632.0, 0.00826792
634.0, 0.00205734
636.0, 0.00828867
638.0, 0.00924205
640.0, 0.00902989
642.0, 0.0164949
644.0, 0.0223127
646.0, 0.0323776
648.0, 0.0407525
650.0, 0.0528914
652.0, 0.0614919
654.0, 0.086271
656.0, 0.110331
658.0, 0.14481
660.0, 0.205256
662.0, 0.279273
664.0, 0.385911
666.0, 0.510486
668.0, 0.646759
670.0, 0.775379
672.0, 0.897045
674.0, 0.980984
676.0, 0.989394
678.0, 0.863774
680.0, 0.679037
682.0, 0.49475
684.0, 0.366395
686.0, 0.283123
688.0, 0.21879
690.0, 0.179429
692.0, 0.144711
694.0, 0.126689
696.0, 0.114326
698.0, 0.0929152
700.0, 0.0854814
702.0, 0.0756327
704.0, 0.0700212
706.0, 0.063541
708.0, 0.0458651
710.0, 0.0399898
712.0, 0.0204467
714.0, 0.0207841
716.0, 0.00753289
718.0, 0.00410439
720.0, 0.00122456
722.0, 0.0043179
724.0, 0.00218143
726.0, 0.00145059
728.0, 0.0031715
730.0, 0.00371544
732.0, 0.00541587
734.0, 0.0134549
736.0, 0.0192359
738.0, 0.0338892
740.0, 0.0531612
742.0, 0.0739991
744.0, 0.0718368
746.0, 0.0886217
748.0, 0.0912406
750.0, 0.0911794
752.0, 0.0665408
754.0, 0.0522052
756.0, 0.0338726
758.0, 0.0288579
760.0, 0.00875367
762.0, 0.0119617
764.0, 0.00323357
766.0, 0.00365314
768.0, 0.00382247
770.0, 0.00236911
772.0, 0.000994936
774.0, 0.00501954
776.0, 0.0100956
778.0, 0.0177857
780.0, 0.0282921
782.0, 0.0251017
784.0, 0.037994
786.0, 0.039044
788.0, 0.0456697
790.0, 0.02531
792.0, 0.0363287
794.0, 0.0318727
796.0, 0.0188648
798.0, 0.0112452
800.0, 0.00827513
802.0, 0.00925213
804.0, 0.0103294
806.0, 0.00491005
808.0, 0.00279845
810.0, 0.00692356
812.0, 0.00440961
814.0, 0.00258152
816.0, 0.000564741
818.0, 0.0063018
820.0, 0.00843474
822.0, 0.000765378
824.0, 0.000601795
826.0, 0.00518195
828.0, 0.000423481
830.0, 0.00143699
832.0, 0.00173422
834.0, 0.00284598
836.0, 0.00605655
838.0, 0.0146109
840.0, 0.0108825
842.0, 0.00377737
844.0, 0.00564559
846.0, 0.0162718
848.0, 0.0159626
850.0, 0.0212009
852.0, 0.018241
854.0, 0.0137852
856.0, 0.0172803
858.0, 0.0284111
860.0, 0.0335518
862.0, 0.0164715
864.0, 0.0214275
866.0, 0.0204878
868.0, 0.0271075
870.0, 0.0337171
872.0, 0.0370857
874.0, 0.0361387
876.0, 0.0339779
878.0, 0.0460952
880.0, 0.0391777
882.0, 0.0461978
884.0, 0.0437169
886.0, 0.0438383
888.0, 0.0484003
890.0, 0.0436122
892.0, 0.0374474
894.0, 0.0282006
896.0, 0.0295012
898.0, 0.0298915
900.0, 0.0168832
902.0, 0.0174778
904.0, 0.0149152
906.0, 0.0170612
908.0, 0.0113729
910.0, 0.0149675
912.0, 0.0131416
914.0, 0.00367191
916.0, 0.0151477
918.0, 0.0135486
920.0, 0.00977132
922.0, 0.0152841
924.0, 0.00555207
926.0, 0.00862397
928.0, 0.00143676
930.0, 0.00264419
932.0, 0.00107109
934.0, 0.00197191
936.0, 0.00596652
938.0, 0.00215285
940.0, 0.000878028
942.0, 0.00381133
944.0, 0.00206915
946.0, 0.00120857
948.0, 0.00711726
950.0, 0.000342043
952.0, 0.00197909
954.0, 0.00429171
956.0, 0.00240976
958.0, 0.00404857
960.0, 0.00266907
962.0, 0.0144125
964.0, 0.00315098
966.0, 0.00719513
968.0, 0.0102231
970.0, 0.00974893
972.0, 0.00644213
974.0, 0.00358932
976.0, 0.00871171
978.0, 0.00714737
980.0, 0.0210006
982.0, 0.0323633
984.0, 0.032533
986.0, 0.0517959
988.0, 0.0580022
990.0, 0.0771397
992.0, 0.0797052
994.0, 0.0838515
996.0, 0.0798222
998.0, 0.0687554
1000.0, 0.0408122
1002.0, 0.0350091
1004.0, 0.0311369
1006.0, 0.027376
1008.0, 0.0344583
1010.0, 0.0228491
1012.0, 0.0290421
1014.0, 0.0393177
1016.0, 0.0384149
1018.0, 0.0495551
1020.0, 0.0552665
1022.0, 0.0515688
1024.0, 0.0622344
1026.0, 0.0538206
1028.0, 0.0537924
1030.0, 0.0546496
1032.0, 0.0634971
1034.0, 0.0794966
1036.0, 0.0852062
1038.0, 0.0925738
1040.0, 0.10386
1042.0, 0.100473
1044.0, 0.100961
1046.0, 0.0943784
1048.0, 0.108837
1050.0, 0.112345
1052.0, 0.122427
1054.0, 0.139482
1056.0, 0.148454
1058.0, 0.149198
1060.0, 0.143457
1062.0, 0.129715
1064.0, 0.109101
1066.0, 0.0730619
1068.0, 0.047637
1070.0, 0.043607
1072.0, 0.0216251
1074.0, 0.0152077
1076.0, 0.0108806
1078.0, 0.0154554
1080.0, 0.00460674
1082.0, 0.00319934
1084.0, 0.00374481
1086.0, 0.00291879
1088.0, 0.00252394
1090.0, 0.00561442
1092.0, 0.00160256
1094.0, 0.000292379
1096.0, 0.00446104
1098.0, 0.00495131
1100.0, 0.000358855
1102.0, 0.00336067
1104.0, 0.000965157
1106.0, 0.00126643
1108.0, 0.00838525
1110.0, 0.0143349
1112.0, 0.00780906
1114.0, 0.00843053
1116.0, 0.010217
1118.0, 0.0268738
1120.0, 0.0408374
1122.0, 0.040455
1124.0, 0.0538114
1126.0, 0.0536343
1128.0, 0.0531026
1130.0, 0.0472861
1132.0, 0.0182359
1134.0, 0.0135139
1136.0, 0.0132877
1138.0, 0.0167588
1140.0, 0.0166954
1142.0, 0.0102624
1144.0, 0.0230245
1146.0, 0.0131866
1148.0, 0.0141136
1150.0, 0.0108534
1152.0, 0.0333531
1154.0, 0.010606
1156.0, 0.0230336
1158.0, 0.0147798
1160.0, 0.0132406
1162.0, 0.0143098
1164.0, 0.00784175
1166.0, 0.00106462
1168.0, 0.00707976
1170.0, 0.00766264
1172.0, 0.00645815
1174.0, 0.00901779
1176.0, 0.00372304
1178.0, 0.000769331
1180.0, 9.76611e-05
1182.0, 0.00278365
1184.0, 0.00558762
1186.0, 0.000762821
1188.0, 0.00481088
1190.0, 0.0081908
1192.0, 0.00309797
1194.0, 0.00271428
1196.0, 0.00608485
1198.0, 0.00792982
1200.0, 0.00169894
1202.0, 0.00708504
1204.0, 0.00938494
1206.0, 0.00863426
1208.0, 0.0114894
1210.0, 0.011119
1212.0, 0.0102931
1214.0, 0.00782491
1216.0, 0.00760682
1218.0, 0.0129269
1220.0, 0.0120947
1222.0, 0.00809695
1224.0, 0.00306222
1226.0, 0.0158434
1228.0, 0.0123443
1230.0, 0.0170178
1232.0, 0.0154924
1234.0, 0.0117948
1236.0, 0.00274255
1238.0, 0.0201075
1240.0, 0.0139538
1242.0, 0.0132888
1244.0, 0.000223864
1246.0, 0.00359263
1248.0, 0.00225725
1250.0, 0.0130888
1252.0, 0.0153518
1254.0, 0.0093287
1256.0, 0.00821005
1258.0, 0.0161713
1260.0, 0.0136158
1262.0, 0.0130744
1264.0, 0.0212315
1266.0, 0.0191319
1268.0, 0.0165406
1270.0, 0.00492389
1272.0, 0.0103179
1274.0, 0.0113848
1276.0, 0.0169958
1278.0, 0.0210823
1280.0, 0.0161497
1282.0, 0.00776496
1284.0, 0.0253806
1286.0, 0.0182309
1288.0, 0.0230736
1290.0, 0.0177828
1292.0, 0.0139469
1294.0, 0.0181708
1296.0, 0.0217161
1298.0, 0.012222
1300.0, 0.00576443
1302.0, 0.00226828
1304.0, 0.011258
1306.0, 0.0139719
1308.0, 0.00660141
1310.0, 0.00623261
1312.0, 0.0137446
1314.0, 0.00172307
1316.0, 0.00670271
1318.0, 0.00369062
1320, 0.0
1322, 0.0
1324, 0.0
1326, 0.0
1328, 0.0
1330, 0.0
1332, 0.0
1334, 0.0
1336, 0.0
1338, 0.0
1340, 0.0
1342, 0.0
1344, 0.0
1346, 0.0
1348, 0.0
1350, 0.0
1352, 0.0
1354, 0.0
1356, 0.0
1358, 0.0
1360, 0.0
1362, 0.0
1364, 0.0
1366, 0.0
1368, 0.0
1370, 0.0
1372, 0.0
1374, 0.0
1376, 0.0
1378, 0.0
1380, 0.0
1382, 0.0
1384, 0.0
1386, 0.0
1388, 0.0
1390, 0.0
1392, 0.0
1394, 0.0
1396, 0.0
1398, 0.0
1400, 0.0
1402, 0.0
1404, 0.0
1406, 0.0
1408, 0.0
1410, 0.0
1412, 0.0
1414, 0.0
1416, 0.0
1418, 0.0
1420, 0.0
1422, 0.0
1424, 0.0
1426, 0.0
1428, 0.0
1430, 0.0
1432, 0.0
1434, 0.0
1436, 0.0
1438, 0.0
1440, 0.0
1442, 0.0
1444, 0.0
1446, 0.0
1448, 0.0
1450, 0.0
1452, 0.0
1454, 0.0
1456, 0.0
1458, 0.0
1460, 0.0
1462, 0.0
1464, 0.0
1466, 0.0
1468, 0.0
1470, 0.0
1472, 0.0
1474, 0.0
1476, 0.0
1478, 0.0
1480, 0.0
1482, 0.0
1484, 0.0
1486, 0.0
1488, 0.0
1490, 0.0
1492, 0.0
1494, 0.0
1496, 0.0
1498, 0.0
1500, 0.0
1502, 0.0
1504, 0.0
1506, 0.0
1508, 0.0
1510, 0.0
1512, 0.0
1514, 0.0
1516, 0.0
1518, 0.0
1520, 0.0
1522, 0.0
1524, 0.0
1526, 0.0
1528, 0.0
1530, 0.0
1532, 0.0
1534, 0.0
1536, 0.0
1538, 0.0
1540, 0.0
1542, 0.0
1544, 0.0
1546, 0.0
1548, 0.0
1550, 0.0
1552, 0.0
1554, 0.0
1556, 0.0
1558, 0.0
1560, 0.0
1562, 0.0
1564, 0.0
1566, 0.0
1568, 0.0
1570, 0.0
1572, 0.0
1574, 0.0
1576, 0.0
1578, 0.0
1580, 0.0
1582, 0.0
1584, 0.0
1586, 0.0
1588, 0.0
1590, 0.0
1592, 0.0
1594, 0.0
1596, 0.0
1598, 0.0
1599, 0.0