File: raw data/Dataset_2/GlassTm/GlassTm__R110085__Raman__780__0__unoriented__Raman_Data_Processed__35511.txt
30, 0.0
32, 0.0
34, 0.0
36, 0.0
38, 0.0
40, 0.0
42, 0.0
44, 0.0
46, 0.0
48, 0.0
50, 0.0
52, 0.0
54, 0.0
56, 0.0
58, 0.0
60, 0.0
62, 0.0
64, 0.0
66, 0.0
68, 0.0
70, 0.0
72, 0.0
74, 0.0
76, 0.0
78, 0.0
80, 0.0
82, 0.0
84, 0.0
86, 0.0
88, 0.0
90, 0.0
92, 0.0
94, 0.0
96, 0.0
98.0, 0.737727
100.0, 0.735544
102.0, 0.734209
104.0, 0.743819
106.0, 0.754483
108.0, 0.760948
110.0, 0.771835
112.0, 0.782064
114.0, 0.791923
116.0, 0.798948
118.0, 0.812282
120.0, 0.819974
122.0, 0.830028
124.0, 0.839551
126.0, 0.849415
128.0, 0.857783
130.0, 0.866164
132.0, 0.873604
134.0, 0.881611
136.0, 0.890964
138.0, 0.896971
140.0, 0.904045
142.0, 0.914487
144.0, 0.922116
146.0, 0.930183
148.0, 0.93451
150.0, 0.942251
152.0, 0.948062
154.0, 0.952009
156.0, 0.958507
158.0, 0.964955
160.0, 0.972172
162.0, 0.975871
164.0, 0.981664
166.0, 0.98296
168.0, 0.984797
170.0, 0.989447
172.0, 0.990538
174.0, 0.99376
176.0, 0.995287
178.0, 0.996438
180.0, 0.997334
182.0, 0.998897
184.0, 0.996772
186.0, 0.999982
188.0, 0.996218
190.0, 0.995824
192.0, 0.996634
194.0, 0.994392
196.0, 0.990955
198.0, 0.995442
200.0, 0.986368
202.0, 0.984098
204.0, 0.980838
206.0, 0.975103
208.0, 0.97258
210.0, 0.967428
212.0, 0.963678
214.0, 0.959821
216.0, 0.953855
218.0, 0.951404
220.0, 0.946276
222.0, 0.9394
224.0, 0.934929
226.0, 0.93059
228.0, 0.923481
230.0, 0.920176
232.0, 0.913585
234.0, 0.908992
236.0, 0.906005
238.0, 0.897992
240.0, 0.898524
242.0, 0.893223
244.0, 0.889469
246.0, 0.886329
248.0, 0.87996
250.0, 0.880624
252.0, 0.872504
254.0, 0.871092
256.0, 0.868525
258.0, 0.867457
260.0, 0.86537
262.0, 0.865816
264.0, 0.86255
266.0, 0.863932
268.0, 0.861858
270.0, 0.863011
272.0, 0.860843
274.0, 0.86045
276.0, 0.863616
278.0, 0.862613
280.0, 0.86472
282.0, 0.865546
284.0, 0.867742
286.0, 0.869024
288.0, 0.870752
290.0, 0.871361
292.0, 0.875035
294.0, 0.87618
296.0, 0.879921
298.0, 0.883801
300.0, 0.88461
302.0, 0.888977
304.0, 0.892614
306.0, 0.897918
308.0, 0.897695
310.0, 0.90279
312.0, 0.907861
314.0, 0.91088
316.0, 0.912367
318.0, 0.915911
320.0, 0.918499
322.0, 0.924548
324.0, 0.923757
326.0, 0.928086
328.0, 0.93082
330.0, 0.934384
332.0, 0.933919
334.0, 0.937544
336.0, 0.940253
338.0, 0.946186
340.0, 0.942025
342.0, 0.946431
344.0, 0.947062
346.0, 0.94754
348.0, 0.947488
350.0, 0.950743
352.0, 0.949063
354.0, 0.949416
356.0, 0.948983
358.0, 0.946648
360.0, 0.943443
362.0, 0.941489
364.0, 0.938056
366.0, 0.937524
368.0, 0.934616
370.0, 0.935068
372.0, 0.929876
374.0, 0.928707
376.0, 0.92465
378.0, 0.91973
380.0, 0.916597
382.0, 0.912646
384.0, 0.908755
386.0, 0.90532
388.0, 0.900067
390.0, 0.895287
392.0, 0.892513
394.0, 0.887482
396.0, 0.883561
398.0, 0.881453
400.0, 0.873107
402.0, 0.87198
404.0, 0.86601
406.0, 0.8609
408.0, 0.857441
410.0, 0.854786
412.0, 0.847898
414.0, 0.84689
416.0, 0.842501
418.0, 0.836507
420.0, 0.833398
422.0, 0.828848
424.0, 0.824057
426.0, 0.821207
428.0, 0.816145
430.0, 0.814638
432.0, 0.811656
434.0, 0.805064
436.0, 0.800555
438.0, 0.799154
440.0, 0.79468
442.0, 0.789855
444.0, 0.790553
446.0, 0.786323
448.0, 0.781462
450.0, 0.778936
452.0, 0.77272
454.0, 0.768317
456.0, 0.766271
458.0, 0.764934
460.0, 0.760343
462.0, 0.757611
464.0, 0.752274
466.0, 0.749656
468.0, 0.746866
470.0, 0.74499
472.0, 0.73883
474.0, 0.736872
476.0, 0.73131
478.0, 0.72575
480.0, 0.722995
482.0, 0.720535
484.0, 0.715667
486.0, 0.710404
488.0, 0.707692
490.0, 0.703846
492.0, 0.698841
494.0, 0.694467
496.0, 0.691068
498.0, 0.687099
500.0, 0.682831
502.0, 0.676694
504.0, 0.673086
506.0, 0.666363
508.0, 0.664971
510.0, 0.659243
512.0, 0.654176
514.0, 0.648205
516.0, 0.643261
518.0, 0.638035
520.0, 0.633102
522.0, 0.626728
524.0, 0.622937
526.0, 0.614182
528.0, 0.609851
530.0, 0.604102
532.0, 0.599592
534.0, 0.59282
536.0, 0.587836
538.0, 0.582944
540.0, 0.575859
542.0, 0.569695
544.0, 0.561996
546.0, 0.556083
548.0, 0.550596
550.0, 0.543146
552.0, 0.537634
554.0, 0.533116
556.0, 0.526269
558.0, 0.521359
560.0, 0.514329
562.0, 0.5081
564.0, 0.502206
566.0, 0.493987
568.0, 0.489908
570.0, 0.48331
572.0, 0.476619
574.0, 0.470321
576.0, 0.463486
578.0, 0.456259
580.0, 0.451462
582.0, 0.444394
584.0, 0.438404
586.0, 0.433799
588.0, 0.425298
590.0, 0.420165
592.0, 0.413503
594.0, 0.407616
596.0, 0.402877
598.0, 0.396622
600.0, 0.390036
602.0, 0.384983
604.0, 0.379068
606.0, 0.374015
608.0, 0.367559
610.0, 0.361435
612.0, 0.355168
614.0, 0.349231
616.0, 0.345189
618.0, 0.339543
620.0, 0.333417
622.0, 0.328064
624.0, 0.323553
626.0, 0.319963
628.0, 0.313025
630.0, 0.30978
632.0, 0.304417
634.0, 0.300134
636.0, 0.29407
638.0, 0.29091
640.0, 0.286365
642.0, 0.280383
644.0, 0.276061
646.0, 0.272608
648.0, 0.268334
650.0, 0.263444
652.0, 0.259261
654.0, 0.255738
656.0, 0.251379
658.0, 0.24726
660.0, 0.24292
662.0, 0.24041
664.0, 0.236591
666.0, 0.232775
668.0, 0.229703
670.0, 0.224695
672.0, 0.22257
674.0, 0.217501
676.0, 0.216054
678.0, 0.211714
680.0, 0.209322
682.0, 0.206055
684.0, 0.20255
686.0, 0.200365
688.0, 0.19766
690.0, 0.194024
692.0, 0.191591
694.0, 0.188741
696.0, 0.185541
698.0, 0.183463
700.0, 0.180744
702.0, 0.17822
704.0, 0.174851
706.0, 0.17349
708.0, 0.171108
710.0, 0.169664
712.0, 0.166452
714.0, 0.164414
716.0, 0.162049
718.0, 0.159647
720.0, 0.158489
722.0, 0.156651
724.0, 0.153926
726.0, 0.151645
728.0, 0.149928
730.0, 0.148381
732.0, 0.146421
734.0, 0.144805
736.0, 0.141956
738.0, 0.140212
740.0, 0.13815
742.0, 0.136122
744.0, 0.134782
746.0, 0.134197
748.0, 0.131444
750.0, 0.130366
752.0, 0.129091
754.0, 0.126374
756.0, 0.125814
758.0, 0.124194
760.0, 0.122235
762.0, 0.120085
764.0, 0.119848
766.0, 0.118124
768.0, 0.116282
770.0, 0.114623
772.0, 0.112829
774.0, 0.112003
776.0, 0.110625
778.0, 0.109286
780.0, 0.108802
782.0, 0.106996
784.0, 0.105664
786.0, 0.104921
788.0, 0.10279
790.0, 0.101582
792.0, 0.100263
794.0, 0.100613
796.0, 0.0985449
798.0, 0.0976324
800.0, 0.0965905
802.0, 0.0941905
804.0, 0.0936049
806.0, 0.0926797
808.0, 0.0916166
810.0, 0.0908814
812.0, 0.0893872
814.0, 0.0884863
816.0, 0.0868278
818.0, 0.086479
820.0, 0.0852022
822.0, 0.0841814
824.0, 0.0828995
826.0, 0.0827233
828.0, 0.0819265
830.0, 0.0797689
832.0, 0.0797908
834.0, 0.0780716
836.0, 0.0768908
838.0, 0.077237
840.0, 0.0762336
842.0, 0.0751519
844.0, 0.0733208
846.0, 0.0730302
848.0, 0.071428
850.0, 0.0701707
852.0, 0.0704563
854.0, 0.0699234
856.0, 0.0683382
858.0, 0.067574
860.0, 0.0669941
862.0, 0.0653081
864.0, 0.0649197
866.0, 0.063957
868.0, 0.0636687
870.0, 0.0630132
872.0, 0.0619862
874.0, 0.0615649
876.0, 0.0600769
878.0, 0.0596484
880.0, 0.0587396
882.0, 0.0584126
884.0, 0.0574893
886.0, 0.0559656
888.0, 0.0558605
890.0, 0.0552483
892.0, 0.0540814
894.0, 0.0537765
896.0, 0.0536937
898.0, 0.0520729
900.0, 0.0513453
902.0, 0.0511121
904.0, 0.0502253
906.0, 0.0498196
908.0, 0.0493616
910.0, 0.0485583
912.0, 0.0476743
914.0, 0.047183
916.0, 0.0472824
918.0, 0.0463821
920.0, 0.0449516
922.0, 0.0447776
924.0, 0.0438488
926.0, 0.043473
928.0, 0.0430349
930.0, 0.0429175
932.0, 0.0420646
934.0, 0.0415209
936.0, 0.0405646
938.0, 0.0405703
940.0, 0.0400843
942.0, 0.0393496
944.0, 0.0385104
946.0, 0.0381938
948.0, 0.038114
950.0, 0.0371956
952.0, 0.0369117
954.0, 0.0363026
956.0, 0.0355284
958.0, 0.035299
960.0, 0.0346137
962.0, 0.0343476
964.0, 0.0332545
966.0, 0.033434
968.0, 0.0328258
970.0, 0.0326868
972.0, 0.0324008
974.0, 0.0315403
976.0, 0.0307432
978.0, 0.0307067
980.0, 0.0306731
982.0, 0.0298791
984.0, 0.0292252
986.0, 0.0296768
988.0, 0.0286891
990.0, 0.0286599
992.0, 0.0281832
994.0, 0.0280019
996.0, 0.0277056
998.0, 0.0273328
1000.0, 0.0265103
1002.0, 0.0264588
1004.0, 0.0260725
1006.0, 0.025725
1008.0, 0.0255872
1010.0, 0.0255145
1012.0, 0.0243855
1014.0, 0.0240454
1016.0, 0.0238204
1018.0, 0.0237276
1020.0, 0.023545
1022.0, 0.0228926
1024.0, 0.0221441
1026.0, 0.0223723
1028.0, 0.0221941
1030.0, 0.0220768
1032.0, 0.0215955
1034.0, 0.0210396
1036.0, 0.0208841
1038.0, 0.0205982
1040.0, 0.0205151
1042.0, 0.0199739
1044.0, 0.0199359
1046.0, 0.0192295
1048.0, 0.0191837
1050.0, 0.018733
1052.0, 0.0188388
1054.0, 0.0186886
1056.0, 0.0183476
1058.0, 0.0181725
1060.0, 0.0177244
1062.0, 0.0176174
1064.0, 0.0173832
1066.0, 0.0171586
1068.0, 0.016648
1070.0, 0.0162847
1072.0, 0.0162101
1074.0, 0.01592
1076.0, 0.0155398
1078.0, 0.015486
1080.0, 0.0152609
1082.0, 0.0150502
1084.0, 0.0144049
1086.0, 0.0145201
1088.0, 0.0144
1090.0, 0.0136737
1092.0, 0.0140901
1094.0, 0.0135663
1096.0, 0.0134428
1098.0, 0.0131741
1100.0, 0.0128933
1102.0, 0.0130136
1104.0, 0.0127949
1106.0, 0.0124648
1108.0, 0.0126865
1110.0, 0.0120865
1112.0, 0.011775
1114.0, 0.0114597
1116.0, 0.0112714
1118.0, 0.0113975
1120.0, 0.0110033
1122.0, 0.0105301
1124.0, 0.0107469
1126.0, 0.0102516
1128.0, 0.0102672
1130.0, 0.0100188
1132.0, 0.0101176
1134.0, 0.00953608
1136.0, 0.00952241
1138.0, 0.0092898
1140.0, 0.00933983
1142.0, 0.0089528
1144.0, 0.00878526
1146.0, 0.00905451
1148.0, 0.00833301
1150.0, 0.00837168
1152.0, 0.00838942
1154.0, 0.00772138
1156.0, 0.00796144
1158.0, 0.00775321
1160.0, 0.00759092
1162.0, 0.0067759
1164.0, 0.00721396
1166.0, 0.00722376
1168.0, 0.00680859
1170.0, 0.0065982
1172.0, 0.00675545
1174.0, 0.00637405
1176.0, 0.00653581
1178.0, 0.00596427
1180.0, 0.00601587
1182.0, 0.00581957
1184.0, 0.00557557
1186.0, 0.00533711
1188.0, 0.00557335
1190.0, 0.00521952
1192.0, 0.00539876
1194.0, 0.00476052
1196.0, 0.0049914
1198.0, 0.00466333
1200.0, 0.00456725
1202.0, 0.00452537
1204.0, 0.00429602
1206.0, 0.00413127
1208.0, 0.00410403
1210.0, 0.00379611
1212.0, 0.00385344
1214.0, 0.00372723
1216.0, 0.00365768
1218.0, 0.00360322
1220.0, 0.00319023
1222.0, 0.00299685
1224.0, 0.0030294
1226.0, 0.00317455
1228.0, 0.0024273
1230.0, 0.00238753
1232.0, 0.00251653
1234.0, 0.00259172
1236.0, 0.00244516
1238.0, 0.00229064
1240.0, 0.0018205
1242.0, 0.00219212
1244.0, 0.00177607
1246.0, 0.00204904
1248.0, 0.00182112
1250.0, 0.00179306
1252.0, 0.00158948
1254.0, 0.00133338
1256.0, 0.00140867
1258.0, 0.00112114
1260.0, 0.00144463
1262.0, 0.0009249
1264.0, 0.00108597
1266.0, 0.000946231
1268.0, 0.00101521
1270.0, 0.000507245
1272.0, 0.000539166
1274.0, 0.000477535
1276.0, 0.000698337
1278.0, 0.000436331
1280.0, 0.000332119
1282.0, 0.000353543
1284.0, 0.000255162
1286, 0.0
1288, 0.0
1290, 0.0
1292, 0.0
1294, 0.0
1296, 0.0
1298, 0.0
1300, 0.0
1302, 0.0
1304, 0.0
1306, 0.0
1308, 0.0
1310, 0.0
1312, 0.0
1314, 0.0
1316, 0.0
1318, 0.0
1320, 0.0
1322, 0.0
1324, 0.0
1326, 0.0
1328, 0.0
1330, 0.0
1332, 0.0
1334, 0.0
1336, 0.0
1338, 0.0
1340, 0.0
1342, 0.0
1344, 0.0
1346, 0.0
1348, 0.0
1350, 0.0
1352, 0.0
1354, 0.0
1356, 0.0
1358, 0.0
1360, 0.0
1362, 0.0
1364, 0.0
1366, 0.0
1368, 0.0
1370, 0.0
1372, 0.0
1374, 0.0
1376, 0.0
1378, 0.0
1380, 0.0
1382, 0.0
1384, 0.0
1386, 0.0
1388, 0.0
1390, 0.0
1392, 0.0
1394, 0.0
1396, 0.0
1398, 0.0
1400, 0.0
1402, 0.0
1404, 0.0
1406, 0.0
1408, 0.0
1410, 0.0
1412, 0.0
1414, 0.0
1416, 0.0
1418, 0.0
1420, 0.0
1422, 0.0
1424, 0.0
1426, 0.0
1428, 0.0
1430, 0.0
1432, 0.0
1434, 0.0
1436, 0.0
1438, 0.0
1440, 0.0
1442, 0.0
1444, 0.0
1446, 0.0
1448, 0.0
1450, 0.0
1452, 0.0
1454, 0.0
1456, 0.0
1458, 0.0
1460, 0.0
1462, 0.0
1464, 0.0
1466, 0.0
1468, 0.0
1470, 0.0
1472, 0.0
1474, 0.0
1476, 0.0
1478, 0.0
1480, 0.0
1482, 0.0
1484, 0.0
1486, 0.0
1488, 0.0
1490, 0.0
1492, 0.0
1494, 0.0
1496, 0.0
1498, 0.0
1500, 0.0
1502, 0.0
1504, 0.0
1506, 0.0
1508, 0.0
1510, 0.0
1512, 0.0
1514, 0.0
1516, 0.0
1518, 0.0
1520, 0.0
1522, 0.0
1524, 0.0
1526, 0.0
1528, 0.0
1530, 0.0
1532, 0.0
1534, 0.0
1536, 0.0
1538, 0.0
1540, 0.0
1542, 0.0
1544, 0.0
1546, 0.0
1548, 0.0
1550, 0.0
1552, 0.0
1554, 0.0
1556, 0.0
1558, 0.0
1560, 0.0
1562, 0.0
1564, 0.0
1566, 0.0
1568, 0.0
1570, 0.0
1572, 0.0
1574, 0.0
1576, 0.0
1578, 0.0
1580, 0.0
1582, 0.0
1584, 0.0
1586, 0.0
1588, 0.0
1590, 0.0
1592, 0.0
1594, 0.0
1596, 0.0
1598, 0.0
1599, 0.0