File: raw data/Dataset_2/GlassTm/GlassTm__R110085__Raman__532__0__unoriented__Raman_Data_Processed__35509.txt
30, 0.0
32, 0.0
34, 0.0
36, 0.0
38, 0.0
40, 0.0
42, 0.0
44, 0.0
46, 0.0
48, 0.0
50, 0.0
52, 0.0
54, 0.0
56, 0.0
58, 0.0
60, 0.0
62, 0.0
64, 0.0
66, 0.0
68, 0.0
70, 0.0
72, 0.0
74, 0.0
76, 0.0
78, 0.0
80, 0.0
82, 0.0
84, 0.0
86, 0.0
88, 0.0
90, 0.0
92, 0.0
94, 0.0
96, 0.0
98, 0.0
100, 0.0
102, 0.0
104, 0.0
106, 0.0
108, 0.0
110, 0.0
112, 0.0
114, 0.0
116, 0.0
118, 0.0
120, 0.0
122, 0.0
124, 0.0
126, 0.0
128, 0.0
130, 0.0
132, 0.0
134, 0.0
136, 0.0
138, 0.0
140, 0.0
142, 0.0
144, 0.0
146, 0.0
148, 0.0
150, 0.0
152, 0.0
154, 0.0
156, 0.0
158, 0.0
160, 0.0
162, 0.0
164, 0.0
166, 0.0
168, 0.0
170, 0.0
172, 0.0
174, 0.0
176, 0.0
178, 0.0
180, 0.0
182, 0.0
184, 0.0
186, 0.0
188, 0.0
190.0, 0.975938
192.0, 0.977961
194.0, 0.987188
196.0, 0.977492
198.0, 0.983931
200.0, 0.991064
202.0, 0.989993
204.0, 0.991245
206.0, 0.985266
208.0, 0.991828
210.0, 0.977362
212.0, 0.973638
214.0, 0.98291
216.0, 0.973304
218.0, 0.962913
220.0, 0.969999
222.0, 0.959956
224.0, 0.963958
226.0, 0.954036
228.0, 0.961087
230.0, 0.947832
232.0, 0.955276
234.0, 0.956901
236.0, 0.948442
238.0, 0.947113
240.0, 0.942881
242.0, 0.936232
244.0, 0.931584
246.0, 0.933322
248.0, 0.93605
250.0, 0.926937
252.0, 0.927449
254.0, 0.92004
256.0, 0.922436
258.0, 0.921473
260.0, 0.91131
262.0, 0.914053
264.0, 0.914467
266.0, 0.917099
268.0, 0.911991
270.0, 0.908052
272.0, 0.914476
274.0, 0.91025
276.0, 0.909371
278.0, 0.915656
280.0, 0.908109
282.0, 0.901333
284.0, 0.893869
286.0, 0.894467
288.0, 0.885849
290.0, 0.887884
292.0, 0.891749
294.0, 0.892685
296.0, 0.884383
298.0, 0.897715
300.0, 0.893718
302.0, 0.893025
304.0, 0.893224
306.0, 0.887419
308.0, 0.887434
310.0, 0.886942
312.0, 0.88114
314.0, 0.883679
316.0, 0.889825
318.0, 0.884447
320.0, 0.881088
322.0, 0.877252
324.0, 0.881289
326.0, 0.875775
328.0, 0.878088
330.0, 0.876176
332.0, 0.875131
334.0, 0.878024
336.0, 0.879433
338.0, 0.876281
340.0, 0.881026
342.0, 0.876173
344.0, 0.873429
346.0, 0.876306
348.0, 0.870804
350.0, 0.869552
352.0, 0.868525
354.0, 0.86985
356.0, 0.875286
358.0, 0.870587
360.0, 0.864686
362.0, 0.868787
364.0, 0.865152
366.0, 0.865483
368.0, 0.859764
370.0, 0.855374
372.0, 0.861645
374.0, 0.86601
376.0, 0.852258
378.0, 0.843643
380.0, 0.844084
382.0, 0.840684
384.0, 0.842363
386.0, 0.837095
388.0, 0.8335
390.0, 0.834727
392.0, 0.831925
394.0, 0.824656
396.0, 0.825068
398.0, 0.824243
400.0, 0.818374
402.0, 0.804727
404.0, 0.808003
406.0, 0.814449
408.0, 0.807457
410.0, 0.791428
412.0, 0.803561
414.0, 0.799284
416.0, 0.794151
418.0, 0.78496
420.0, 0.782947
422.0, 0.776413
424.0, 0.771894
426.0, 0.771808
428.0, 0.77711
430.0, 0.775523
432.0, 0.767987
434.0, 0.762855
436.0, 0.761089
438.0, 0.752688
440.0, 0.755802
442.0, 0.760479
444.0, 0.744552
446.0, 0.746749
448.0, 0.750674
450.0, 0.745026
452.0, 0.739324
454.0, 0.73966
456.0, 0.737542
458.0, 0.734765
460.0, 0.735592
462.0, 0.741444
464.0, 0.728213
466.0, 0.733476
468.0, 0.728385
470.0, 0.720791
472.0, 0.719048
474.0, 0.714675
476.0, 0.719699
478.0, 0.717278
480.0, 0.71031
482.0, 0.714859
484.0, 0.716872
486.0, 0.712468
488.0, 0.710512
490.0, 0.707356
492.0, 0.705503
494.0, 0.712961
496.0, 0.707379
498.0, 0.705832
500.0, 0.702835
502.0, 0.70024
504.0, 0.699254
506.0, 0.701991
508.0, 0.697731
510.0, 0.704002
512.0, 0.701572
514.0, 0.694681
516.0, 0.70117
518.0, 0.693229
520.0, 0.694877
522.0, 0.689413
524.0, 0.689153
526.0, 0.686116
528.0, 0.695606
530.0, 0.683814
532.0, 0.684539
534.0, 0.680216
536.0, 0.673011
538.0, 0.673319
540.0, 0.669536
542.0, 0.669416
544.0, 0.667089
546.0, 0.670351
548.0, 0.667595
550.0, 0.666574
552.0, 0.666633
554.0, 0.662152
556.0, 0.659085
558.0, 0.659137
560.0, 0.653844
562.0, 0.655783
564.0, 0.653195
566.0, 0.650428
568.0, 0.646551
570.0, 0.641752
572.0, 0.636578
574.0, 0.639684
576.0, 0.623584
578.0, 0.62806
580.0, 0.618567
582.0, 0.620148
584.0, 0.604043
586.0, 0.602533
588.0, 0.57968
590.0, 0.578155
592.0, 0.574513
594.0, 0.565334
596.0, 0.55723
598.0, 0.542389
600.0, 0.53633
602.0, 0.526766
604.0, 0.512288
606.0, 0.511851
608.0, 0.491491
610.0, 0.498927
612.0, 0.492304
614.0, 0.482645
616.0, 0.477884
618.0, 0.474695
620.0, 0.472409
622.0, 0.466837
624.0, 0.459299
626.0, 0.463547
628.0, 0.453763
630.0, 0.451413
632.0, 0.453363
634.0, 0.456561
636.0, 0.45323
638.0, 0.45676
640.0, 0.454313
642.0, 0.451583
644.0, 0.454045
646.0, 0.454767
648.0, 0.450816
650.0, 0.452704
652.0, 0.457
654.0, 0.461577
656.0, 0.456102
658.0, 0.457315
660.0, 0.459292
662.0, 0.459455
664.0, 0.456269
666.0, 0.456283
668.0, 0.449927
670.0, 0.454557
672.0, 0.452417
674.0, 0.448691
676.0, 0.454401
678.0, 0.44634
680.0, 0.443151
682.0, 0.452157
684.0, 0.441458
686.0, 0.440569
688.0, 0.437302
690.0, 0.436651
692.0, 0.436731
694.0, 0.430455
696.0, 0.432442
698.0, 0.421526
700.0, 0.421861
702.0, 0.417301
704.0, 0.416611
706.0, 0.409367
708.0, 0.406349
710.0, 0.403221
712.0, 0.397005
714.0, 0.399
716.0, 0.392278
718.0, 0.385674
720.0, 0.378083
722.0, 0.381509
724.0, 0.379897
726.0, 0.372229
728.0, 0.368597
730.0, 0.362014
732.0, 0.359326
734.0, 0.350626
736.0, 0.351409
738.0, 0.345775
740.0, 0.335058
742.0, 0.338719
744.0, 0.324265
746.0, 0.320483
748.0, 0.313964
750.0, 0.317616
752.0, 0.306553
754.0, 0.297449
756.0, 0.298184
758.0, 0.292644
760.0, 0.283683
762.0, 0.275654
764.0, 0.268137
766.0, 0.267968
768.0, 0.264232
770.0, 0.256277
772.0, 0.254648
774.0, 0.240973
776.0, 0.234854
778.0, 0.234908
780.0, 0.222889
782.0, 0.224484
784.0, 0.222992
786.0, 0.220688
788.0, 0.209496
790.0, 0.205648
792.0, 0.201478
794.0, 0.197896
796.0, 0.198511
798.0, 0.195116
800.0, 0.195742
802.0, 0.196282
804.0, 0.197261
806.0, 0.20027
808.0, 0.201318
810.0, 0.205298
812.0, 0.209195
814.0, 0.211394
816.0, 0.215696
818.0, 0.222743
820.0, 0.229251
822.0, 0.237415
824.0, 0.24396
826.0, 0.248941
828.0, 0.258872
830.0, 0.266074
832.0, 0.28086
834.0, 0.291534
836.0, 0.307278
838.0, 0.319645
840.0, 0.326437
842.0, 0.346822
844.0, 0.356937
846.0, 0.376236
848.0, 0.389137
850.0, 0.401703
852.0, 0.418849
854.0, 0.43813
856.0, 0.456903
858.0, 0.475314
860.0, 0.486913
862.0, 0.507636
864.0, 0.523993
866.0, 0.531622
868.0, 0.54759
870.0, 0.565405
872.0, 0.584213
874.0, 0.602281
876.0, 0.613364
878.0, 0.623518
880.0, 0.64057
882.0, 0.649298
884.0, 0.657156
886.0, 0.671997
888.0, 0.681645
890.0, 0.694648
892.0, 0.696905
894.0, 0.712035
896.0, 0.719992
898.0, 0.727314
900.0, 0.730395
902.0, 0.737864
904.0, 0.74744
906.0, 0.754913
908.0, 0.763167
910.0, 0.771002
912.0, 0.766792
914.0, 0.765219
916.0, 0.7858
918.0, 0.782963
920.0, 0.788384
922.0, 0.793729
924.0, 0.798055
926.0, 0.799166
928.0, 0.806959
930.0, 0.805175
932.0, 0.804688
934.0, 0.798921
936.0, 0.800509
938.0, 0.7927
940.0, 0.794076
942.0, 0.804366
944.0, 0.799204
946.0, 0.800641
948.0, 0.814506
950.0, 0.798631
952.0, 0.797571
954.0, 0.807873
956.0, 0.796169
958.0, 0.791478
960.0, 0.790657
962.0, 0.786007
964.0, 0.783843
966.0, 0.784742
968.0, 0.775352
970.0, 0.772477
972.0, 0.764109
974.0, 0.758556
976.0, 0.755252
978.0, 0.749867
980.0, 0.750424
982.0, 0.735775
984.0, 0.727245
986.0, 0.720064
988.0, 0.715437
990.0, 0.710984
992.0, 0.700978
994.0, 0.693222
996.0, 0.678099
998.0, 0.670082
1000.0, 0.661152
1002.0, 0.656254
1004.0, 0.644648
1006.0, 0.626649
1008.0, 0.630004
1010.0, 0.615291
1012.0, 0.606624
1014.0, 0.597013
1016.0, 0.583189
1018.0, 0.574291
1020.0, 0.56818
1022.0, 0.556263
1024.0, 0.545752
1026.0, 0.532674
1028.0, 0.513493
1030.0, 0.509478
1032.0, 0.501833
1034.0, 0.485701
1036.0, 0.484809
1038.0, 0.473138
1040.0, 0.458131
1042.0, 0.447472
1044.0, 0.431267
1046.0, 0.425927
1048.0, 0.411664
1050.0, 0.405586
1052.0, 0.393205
1054.0, 0.388478
1056.0, 0.37519
1058.0, 0.36613
1060.0, 0.348386
1062.0, 0.34786
1064.0, 0.334181
1066.0, 0.319959
1068.0, 0.310871
1070.0, 0.304375
1072.0, 0.293562
1074.0, 0.28677
1076.0, 0.275519
1078.0, 0.269428
1080.0, 0.260573
1082.0, 0.253183
1084.0, 0.251632
1086.0, 0.233147
1088.0, 0.225504
1090.0, 0.216188
1092.0, 0.211779
1094.0, 0.200081
1096.0, 0.191231
1098.0, 0.187415
1100.0, 0.179153
1102.0, 0.171451
1104.0, 0.161836
1106.0, 0.154122
1108.0, 0.148045
1110.0, 0.145967
1112.0, 0.134173
1114.0, 0.131092
1116.0, 0.126492
1118.0, 0.117599
1120.0, 0.120835
1122.0, 0.106478
1124.0, 0.099919
1126.0, 0.0991082
1128.0, 0.0930924
1130.0, 0.0967836
1132.0, 0.0894956
1134.0, 0.0765846
1136.0, 0.0821842
1138.0, 0.0748367
1140.0, 0.0694318
1142.0, 0.0675336
1144.0, 0.0685921
1146.0, 0.0670962
1148.0, 0.0607956
1150.0, 0.0585253
1152.0, 0.0576625
1154.0, 0.0571521
1156.0, 0.0460657
1158.0, 0.049275
1160.0, 0.038557
1162.0, 0.0426767
1164.0, 0.0465727
1166.0, 0.0415622
1168.0, 0.0418306
1170.0, 0.0373577
1172.0, 0.0374255
1174.0, 0.0328676
1176.0, 0.034884
1178.0, 0.0294087
1180.0, 0.0261359
1182.0, 0.0277253
1184.0, 0.0286911
1186.0, 0.0286675
1188.0, 0.0160231
1190.0, 0.0202194
1192.0, 0.0229557
1194.0, 0.0254273
1196.0, 0.0168961
1198.0, 0.0189104
1200.0, 0.0182153
1202.0, 0.0162456
1204.0, 0.0132388
1206.0, 0.0126196
1208.0, 0.0154737
1210.0, 0.0138798
1212.0, 0.0137085
1214.0, 0.00952545
1216.0, 0.00933881
1218.0, 0.0103367
1220.0, 0.0114805
1222.0, 0.0164097
1224.0, 0.0126958
1226.0, 0.0136815
1228.0, 0.00832699
1230.0, 0.0117435
1232.0, 0.00500109
1234.0, 0.0125248
1236.0, 0.00814362
1238.0, 0.00712917
1240.0, 0.0052607
1242.0, 0.00802008
1244.0, 0.00497989
1246.0, 0.00753813
1248.0, 0.00371783
1250.0, 0.00362019
1252.0, 0.00951682
1254.0, 0.00696919
1256.0, 0.00493372
1258.0, 0.00640422
1260.0, 0.00240272
1262.0, 0.00744912
1264.0, 0.0057487
1266.0, 0.00621794
1268.0, 0.00946796
1270.0, 0.00456947
1272.0, 0.00195897
1274.0, 0.00674428
1276.0, 0.00624083
1278.0, 0.00579437
1280.0, 0.00692267
1282.0, 0.00482208
1284.0, 0.00418487
1286.0, 0.00978874
1288.0, 0.00869332
1290.0, 0.0106843
1292.0, 0.0182722
1294.0, 0.0119677
1296.0, 0.0100876
1298.0, 0.0101249
1300.0, 0.00719627
1302.0, 0.0112611
1304, 0.0
1306, 0.0
1308, 0.0
1310, 0.0
1312, 0.0
1314, 0.0
1316, 0.0
1318, 0.0
1320, 0.0
1322, 0.0
1324, 0.0
1326, 0.0
1328, 0.0
1330, 0.0
1332, 0.0
1334, 0.0
1336, 0.0
1338, 0.0
1340, 0.0
1342, 0.0
1344, 0.0
1346, 0.0
1348, 0.0
1350, 0.0
1352, 0.0
1354, 0.0
1356, 0.0
1358, 0.0
1360, 0.0
1362, 0.0
1364, 0.0
1366, 0.0
1368, 0.0
1370, 0.0
1372, 0.0
1374, 0.0
1376, 0.0
1378, 0.0
1380, 0.0
1382, 0.0
1384, 0.0
1386, 0.0
1388, 0.0
1390, 0.0
1392, 0.0
1394, 0.0
1396, 0.0
1398, 0.0
1400, 0.0
1402, 0.0
1404, 0.0
1406, 0.0
1408, 0.0
1410, 0.0
1412, 0.0
1414, 0.0
1416, 0.0
1418, 0.0
1420, 0.0
1422, 0.0
1424, 0.0
1426, 0.0
1428, 0.0
1430, 0.0
1432, 0.0
1434, 0.0
1436, 0.0
1438, 0.0
1440, 0.0
1442, 0.0
1444, 0.0
1446, 0.0
1448, 0.0
1450, 0.0
1452, 0.0
1454, 0.0
1456, 0.0
1458, 0.0
1460, 0.0
1462, 0.0
1464, 0.0
1466, 0.0
1468, 0.0
1470, 0.0
1472, 0.0
1474, 0.0
1476, 0.0
1478, 0.0
1480, 0.0
1482, 0.0
1484, 0.0
1486, 0.0
1488, 0.0
1490, 0.0
1492, 0.0
1494, 0.0
1496, 0.0
1498, 0.0
1500, 0.0
1502, 0.0
1504, 0.0
1506, 0.0
1508, 0.0
1510, 0.0
1512, 0.0
1514, 0.0
1516, 0.0
1518, 0.0
1520, 0.0
1522, 0.0
1524, 0.0
1526, 0.0
1528, 0.0
1530, 0.0
1532, 0.0
1534, 0.0
1536, 0.0
1538, 0.0
1540, 0.0
1542, 0.0
1544, 0.0
1546, 0.0
1548, 0.0
1550, 0.0
1552, 0.0
1554, 0.0
1556, 0.0
1558, 0.0
1560, 0.0
1562, 0.0
1564, 0.0
1566, 0.0
1568, 0.0
1570, 0.0
1572, 0.0
1574, 0.0
1576, 0.0
1578, 0.0
1580, 0.0
1582, 0.0
1584, 0.0
1586, 0.0
1588, 0.0
1590, 0.0
1592, 0.0
1594, 0.0
1596, 0.0
1598, 0.0
1599, 0.0