File: raw data/Dataset_2/GlassGd/GlassGd__R110080__Raman__780__0__unoriented__Raman_Data_Processed__35498.txt
30, 0.0
32, 0.0
34, 0.0
36, 0.0
38, 0.0
40, 0.0
42, 0.0
44, 0.0
46, 0.0
48, 0.0
50, 0.0
52, 0.0
54, 0.0
56, 0.0
58, 0.0
60, 0.0
62, 0.0
64, 0.0
66, 0.0
68, 0.0
70, 0.0
72, 0.0
74, 0.0
76, 0.0
78, 0.0
80, 0.0
82, 0.0
84, 0.0
86, 0.0
88, 0.0
90, 0.0
92, 0.0
94, 0.0
96, 0.0
98, 0.0
100, 0.0
102, 0.0
104.0, 0.744425
106.0, 0.753801
108.0, 0.765933
110.0, 0.777582
112.0, 0.787276
114.0, 0.800521
116.0, 0.812113
118.0, 0.823285
120.0, 0.83173
122.0, 0.842902
124.0, 0.855576
126.0, 0.864479
128.0, 0.873633
130.0, 0.884522
132.0, 0.89322
134.0, 0.901883
136.0, 0.9124
138.0, 0.920441
140.0, 0.929945
142.0, 0.935989
144.0, 0.94565
146.0, 0.951605
148.0, 0.958119
150.0, 0.96483
152.0, 0.970673
154.0, 0.975002
156.0, 0.981699
158.0, 0.986034
160.0, 0.989049
162.0, 0.9927
164.0, 0.995785
166.0, 0.99695
168.0, 0.998122
170.0, 0.997272
172.0, 0.999558
174.0, 0.998074
176.0, 0.997614
178.0, 0.996533
180.0, 0.995409
182.0, 0.993437
184.0, 0.990626
186.0, 0.98681
188.0, 0.98128
190.0, 0.977741
192.0, 0.97408
194.0, 0.96895
196.0, 0.963253
198.0, 0.958734
200.0, 0.949804
202.0, 0.940342
204.0, 0.935363
206.0, 0.928296
208.0, 0.92251
210.0, 0.913257
212.0, 0.905413
214.0, 0.897095
216.0, 0.890938
218.0, 0.882028
220.0, 0.874981
222.0, 0.866269
224.0, 0.859171
226.0, 0.850825
228.0, 0.841852
230.0, 0.835292
232.0, 0.828274
234.0, 0.823379
236.0, 0.81581
238.0, 0.809016
240.0, 0.802586
242.0, 0.796289
244.0, 0.791262
246.0, 0.785864
248.0, 0.78368
250.0, 0.779095
252.0, 0.773657
254.0, 0.770355
256.0, 0.766965
258.0, 0.765205
260.0, 0.762547
262.0, 0.761964
264.0, 0.761384
266.0, 0.760427
268.0, 0.759809
270.0, 0.760361
272.0, 0.759387
274.0, 0.759288
276.0, 0.76075
278.0, 0.762168
280.0, 0.764531
282.0, 0.766428
284.0, 0.768753
286.0, 0.769769
288.0, 0.772532
290.0, 0.776552
292.0, 0.779669
294.0, 0.78275
296.0, 0.784994
298.0, 0.790128
300.0, 0.795074
302.0, 0.796742
304.0, 0.803406
306.0, 0.806972
308.0, 0.81093
310.0, 0.8166
312.0, 0.819978
314.0, 0.826905
316.0, 0.829931
318.0, 0.833571
320.0, 0.838146
322.0, 0.843256
324.0, 0.845064
326.0, 0.849632
328.0, 0.853825
330.0, 0.856841
332.0, 0.859106
334.0, 0.8641
336.0, 0.866959
338.0, 0.870844
340.0, 0.872439
342.0, 0.871652
344.0, 0.876493
346.0, 0.87542
348.0, 0.876431
350.0, 0.877369
352.0, 0.8751
354.0, 0.876075
356.0, 0.873896
358.0, 0.873618
360.0, 0.871524
362.0, 0.869229
364.0, 0.865704
366.0, 0.862552
368.0, 0.859688
370.0, 0.859246
372.0, 0.852326
374.0, 0.848201
376.0, 0.843113
378.0, 0.839108
380.0, 0.835162
382.0, 0.830833
384.0, 0.826448
386.0, 0.821695
388.0, 0.817542
390.0, 0.8111
392.0, 0.806542
394.0, 0.800976
396.0, 0.797097
398.0, 0.790806
400.0, 0.786544
402.0, 0.782221
404.0, 0.776724
406.0, 0.772768
408.0, 0.768049
410.0, 0.76214
412.0, 0.758165
414.0, 0.754155
416.0, 0.749697
418.0, 0.744357
420.0, 0.741309
422.0, 0.737586
424.0, 0.733019
426.0, 0.728222
428.0, 0.724021
430.0, 0.720189
432.0, 0.715867
434.0, 0.713027
436.0, 0.708135
438.0, 0.703604
440.0, 0.699004
442.0, 0.696858
444.0, 0.693709
446.0, 0.690014
448.0, 0.686151
450.0, 0.682307
452.0, 0.679427
454.0, 0.675899
456.0, 0.672421
458.0, 0.66964
460.0, 0.665757
462.0, 0.662531
464.0, 0.658241
466.0, 0.654454
468.0, 0.65158
470.0, 0.648161
472.0, 0.645448
474.0, 0.642254
476.0, 0.637734
478.0, 0.632445
480.0, 0.628506
482.0, 0.625354
484.0, 0.621849
486.0, 0.616756
488.0, 0.612574
490.0, 0.609552
492.0, 0.604702
494.0, 0.600764
496.0, 0.596205
498.0, 0.591642
500.0, 0.585591
502.0, 0.581526
504.0, 0.577313
506.0, 0.572403
508.0, 0.567604
510.0, 0.563025
512.0, 0.558052
514.0, 0.553288
516.0, 0.548247
518.0, 0.543004
520.0, 0.535822
522.0, 0.531211
524.0, 0.524654
526.0, 0.517971
528.0, 0.512793
530.0, 0.507087
532.0, 0.501344
534.0, 0.495884
536.0, 0.489887
538.0, 0.484486
540.0, 0.477737
542.0, 0.471517
544.0, 0.465006
546.0, 0.459333
548.0, 0.453606
550.0, 0.447348
552.0, 0.442103
554.0, 0.435478
556.0, 0.42916
558.0, 0.423639
560.0, 0.417896
562.0, 0.411525
564.0, 0.40543
566.0, 0.400188
568.0, 0.394422
570.0, 0.388443
572.0, 0.382074
574.0, 0.374917
576.0, 0.370212
578.0, 0.364241
580.0, 0.358091
582.0, 0.352242
584.0, 0.346075
586.0, 0.342876
588.0, 0.335381
590.0, 0.329343
592.0, 0.324572
594.0, 0.318447
596.0, 0.312065
598.0, 0.30876
600.0, 0.301673
602.0, 0.296664
604.0, 0.291728
606.0, 0.286663
608.0, 0.281216
610.0, 0.275634
612.0, 0.270887
614.0, 0.266251
616.0, 0.261942
618.0, 0.256841
620.0, 0.252006
622.0, 0.246965
624.0, 0.243495
626.0, 0.238673
628.0, 0.234272
630.0, 0.230093
632.0, 0.226174
634.0, 0.222208
636.0, 0.218189
638.0, 0.213591
640.0, 0.209883
642.0, 0.20609
644.0, 0.202672
646.0, 0.198937
648.0, 0.195778
650.0, 0.192347
652.0, 0.1886
654.0, 0.185495
656.0, 0.181314
658.0, 0.178168
660.0, 0.174767
662.0, 0.171407
664.0, 0.168532
666.0, 0.165295
668.0, 0.16314
670.0, 0.159508
672.0, 0.157204
674.0, 0.154149
676.0, 0.15144
678.0, 0.148082
680.0, 0.145964
682.0, 0.143293
684.0, 0.141082
686.0, 0.137955
688.0, 0.135702
690.0, 0.133415
692.0, 0.13124
694.0, 0.128992
696.0, 0.126296
698.0, 0.124284
700.0, 0.122202
702.0, 0.120564
704.0, 0.117904
706.0, 0.116158
708.0, 0.114814
710.0, 0.112458
712.0, 0.110414
714.0, 0.108136
716.0, 0.106998
718.0, 0.104513
720.0, 0.103541
722.0, 0.10135
724.0, 0.100166
726.0, 0.0979783
728.0, 0.0962813
730.0, 0.0942062
732.0, 0.0941395
734.0, 0.0916706
736.0, 0.0899609
738.0, 0.0885943
740.0, 0.086965
742.0, 0.0856878
744.0, 0.0835765
746.0, 0.0833033
748.0, 0.0811712
750.0, 0.0795395
752.0, 0.0784609
754.0, 0.0769156
756.0, 0.077489
758.0, 0.0751613
760.0, 0.0732414
762.0, 0.0721377
764.0, 0.0706683
766.0, 0.0696974
768.0, 0.0686947
770.0, 0.0668636
772.0, 0.0658437
774.0, 0.0647803
776.0, 0.0638984
778.0, 0.0627206
780.0, 0.0620166
782.0, 0.0609224
784.0, 0.0596088
786.0, 0.0583481
788.0, 0.0569951
790.0, 0.0559847
792.0, 0.0558739
794.0, 0.0544809
796.0, 0.0537898
798.0, 0.0525075
800.0, 0.0514641
802.0, 0.0509011
804.0, 0.0495775
806.0, 0.0487814
808.0, 0.0478861
810.0, 0.046517
812.0, 0.0459932
814.0, 0.0446729
816.0, 0.0442221
818.0, 0.0434444
820.0, 0.042447
822.0, 0.041942
824.0, 0.0409535
826.0, 0.0399863
828.0, 0.0394262
830.0, 0.0387258
832.0, 0.0379113
834.0, 0.0368335
836.0, 0.0371764
838.0, 0.0359076
840.0, 0.0359855
842.0, 0.0346634
844.0, 0.0342736
846.0, 0.0336739
848.0, 0.0330336
850.0, 0.0326307
852.0, 0.0322897
854.0, 0.0315246
856.0, 0.0311261
858.0, 0.0306653
860.0, 0.0304753
862.0, 0.0298756
864.0, 0.0297206
866.0, 0.0287408
868.0, 0.0291725
870.0, 0.0282025
872.0, 0.0277786
874.0, 0.02773
876.0, 0.0273017
878.0, 0.0262539
880.0, 0.0265142
882.0, 0.0255382
884.0, 0.0254121
886.0, 0.0249844
888.0, 0.0247329
890.0, 0.0242642
892.0, 0.0243912
894.0, 0.0237985
896.0, 0.0230193
898.0, 0.0227086
900.0, 0.0223777
902.0, 0.022231
904.0, 0.0220398
906.0, 0.0219128
908.0, 0.0216221
910.0, 0.0215908
912.0, 0.020789
914.0, 0.0208101
916.0, 0.0201334
918.0, 0.020264
920.0, 0.0201427
922.0, 0.0196899
924.0, 0.0194864
926.0, 0.0191252
928.0, 0.0190401
930.0, 0.0187794
932.0, 0.0187258
934.0, 0.0181109
936.0, 0.0182431
938.0, 0.0181166
940.0, 0.0178692
942.0, 0.0168195
944.0, 0.0168449
946.0, 0.0165711
948.0, 0.0168129
950.0, 0.0165952
952.0, 0.0159308
954.0, 0.0159541
956.0, 0.0160456
958.0, 0.0156975
960.0, 0.0154555
962.0, 0.0148688
964.0, 0.0142108
966.0, 0.0143251
968.0, 0.0148972
970.0, 0.0143149
972.0, 0.0141437
974.0, 0.013143
976.0, 0.013189
978.0, 0.0131705
980.0, 0.0131899
982.0, 0.0132898
984.0, 0.0126564
986.0, 0.0123392
988.0, 0.0124319
990.0, 0.0122422
992.0, 0.0123716
994.0, 0.0118041
996.0, 0.0116688
998.0, 0.0116844
1000.0, 0.0113459
1002.0, 0.0109779
1004.0, 0.0110348
1006.0, 0.0108428
1008.0, 0.0106359
1010.0, 0.0104942
1012.0, 0.0105462
1014.0, 0.0103311
1016.0, 0.0100679
1018.0, 0.0101375
1020.0, 0.00964854
1022.0, 0.0095757
1024.0, 0.00887914
1026.0, 0.00909833
1028.0, 0.00869312
1030.0, 0.00868639
1032.0, 0.00826219
1034.0, 0.00819688
1036.0, 0.00819579
1038.0, 0.00768156
1040.0, 0.00736291
1042.0, 0.00858593
1044.0, 0.00675915
1046.0, 0.00623958
1048.0, 0.00645151
1050.0, 0.0060026
1052.0, 0.00594699
1054.0, 0.00599053
1056.0, 0.00553956
1058.0, 0.00535861
1060.0, 0.00490279
1062.0, 0.00440144
1064.0, 0.00422508
1066.0, 0.00410158
1068.0, 0.00354834
1070.0, 0.00381205
1072.0, 0.00391414
1074.0, 0.00314386
1076.0, 0.0033201
1078.0, 0.00410156
1080.0, 0.00365963
1082.0, 0.0032789
1084.0, 0.00377823
1086.0, 0.00341616
1088.0, 0.00315126
1090.0, 0.00370939
1092.0, 0.00281515
1094.0, 0.00281548
1096.0, 0.00193853
1098.0, 0.00394912
1100.0, 0.00153028
1102.0, 0.00101354
1104.0, 0.00131968
1106.0, 0.000534861
1108.0, 0.00108449
1110.0, 0.000917558
1112.0, 0.000556033
1114.0, 5.94427e-05
1116.0, 0.000693813
1118.0, 0.000796657
1120.0, 0.000467943
1122.0, 0.000882945
1124.0, 0.00130429
1126.0, 0.00129477
1128.0, 0.00166713
1130.0, 0.0017604
1132.0, 0.00131509
1134.0, 0.00198794
1136.0, 0.00217424
1138.0, 0.00197292
1140.0, 0.00237452
1142.0, 0.00263089
1144.0, 0.00230106
1146.0, 0.00265764
1148.0, 0.00336242
1150.0, 0.00339846
1152.0, 0.00415713
1154.0, 0.00414687
1156.0, 0.00409803
1158.0, 0.00422746
1160.0, 0.0044838
1162.0, 0.00515806
1164.0, 0.00557828
1166.0, 0.0059816
1168.0, 0.00675111
1170.0, 0.00635997
1172.0, 0.00669288
1174.0, 0.00737031
1176.0, 0.00763397
1178.0, 0.00794308
1180.0, 0.00797068
1182.0, 0.00830737
1184.0, 0.00863725
1186.0, 0.00859904
1188.0, 0.00895718
1190.0, 0.00980552
1192.0, 0.0103375
1194.0, 0.0103353
1196.0, 0.0106113
1198.0, 0.0108309
1200.0, 0.0110073
1202.0, 0.0116893
1204.0, 0.0116766
1206.0, 0.012016
1208.0, 0.012564
1210.0, 0.012865
1212.0, 0.0127648
1214.0, 0.0132856
1216.0, 0.013377
1218.0, 0.0142561
1220.0, 0.0141226
1222.0, 0.0142026
1224.0, 0.0151877
1226.0, 0.0154831
1228.0, 0.0154572
1230.0, 0.0154314
1232.0, 0.0162756
1234.0, 0.016008
1236.0, 0.0165654
1238.0, 0.0165201
1240.0, 0.0167846
1242.0, 0.0164893
1244.0, 0.0169052
1246.0, 0.0171061
1248.0, 0.0172792
1250.0, 0.0182101
1252.0, 0.0178234
1254.0, 0.017674
1256.0, 0.0180651
1258.0, 0.0188643
1260.0, 0.0189224
1262.0, 0.0195692
1264.0, 0.0197342
1266.0, 0.0203075
1268.0, 0.0200859
1270.0, 0.0204197
1272.0, 0.0205193
1274.0, 0.0215242
1276.0, 0.0214104
1278.0, 0.0215331
1280.0, 0.0214888
1282.0, 0.0227807
1284.0, 0.0226427
1286, 0.0
1288, 0.0
1290, 0.0
1292, 0.0
1294, 0.0
1296, 0.0
1298, 0.0
1300, 0.0
1302, 0.0
1304, 0.0
1306, 0.0
1308, 0.0
1310, 0.0
1312, 0.0
1314, 0.0
1316, 0.0
1318, 0.0
1320, 0.0
1322, 0.0
1324, 0.0
1326, 0.0
1328, 0.0
1330, 0.0
1332, 0.0
1334, 0.0
1336, 0.0
1338, 0.0
1340, 0.0
1342, 0.0
1344, 0.0
1346, 0.0
1348, 0.0
1350, 0.0
1352, 0.0
1354, 0.0
1356, 0.0
1358, 0.0
1360, 0.0
1362, 0.0
1364, 0.0
1366, 0.0
1368, 0.0
1370, 0.0
1372, 0.0
1374, 0.0
1376, 0.0
1378, 0.0
1380, 0.0
1382, 0.0
1384, 0.0
1386, 0.0
1388, 0.0
1390, 0.0
1392, 0.0
1394, 0.0
1396, 0.0
1398, 0.0
1400, 0.0
1402, 0.0
1404, 0.0
1406, 0.0
1408, 0.0
1410, 0.0
1412, 0.0
1414, 0.0
1416, 0.0
1418, 0.0
1420, 0.0
1422, 0.0
1424, 0.0
1426, 0.0
1428, 0.0
1430, 0.0
1432, 0.0
1434, 0.0
1436, 0.0
1438, 0.0
1440, 0.0
1442, 0.0
1444, 0.0
1446, 0.0
1448, 0.0
1450, 0.0
1452, 0.0
1454, 0.0
1456, 0.0
1458, 0.0
1460, 0.0
1462, 0.0
1464, 0.0
1466, 0.0
1468, 0.0
1470, 0.0
1472, 0.0
1474, 0.0
1476, 0.0
1478, 0.0
1480, 0.0
1482, 0.0
1484, 0.0
1486, 0.0
1488, 0.0
1490, 0.0
1492, 0.0
1494, 0.0
1496, 0.0
1498, 0.0
1500, 0.0
1502, 0.0
1504, 0.0
1506, 0.0
1508, 0.0
1510, 0.0
1512, 0.0
1514, 0.0
1516, 0.0
1518, 0.0
1520, 0.0
1522, 0.0
1524, 0.0
1526, 0.0
1528, 0.0
1530, 0.0
1532, 0.0
1534, 0.0
1536, 0.0
1538, 0.0
1540, 0.0
1542, 0.0
1544, 0.0
1546, 0.0
1548, 0.0
1550, 0.0
1552, 0.0
1554, 0.0
1556, 0.0
1558, 0.0
1560, 0.0
1562, 0.0
1564, 0.0
1566, 0.0
1568, 0.0
1570, 0.0
1572, 0.0
1574, 0.0
1576, 0.0
1578, 0.0
1580, 0.0
1582, 0.0
1584, 0.0
1586, 0.0
1588, 0.0
1590, 0.0
1592, 0.0
1594, 0.0
1596, 0.0
1598, 0.0
1599, 0.0