File: raw data/Dataset_2/GlassGd/GlassGd__R110080__Raman__532__0__unoriented__Raman_Data_Processed__35499.txt
30, 0.0
32, 0.0
34, 0.0
36, 0.0
38, 0.0
40, 0.0
42, 0.0
44, 0.0
46, 0.0
48, 0.0
50, 0.0
52, 0.0
54, 0.0
56, 0.0
58, 0.0
60, 0.0
62, 0.0
64, 0.0
66, 0.0
68, 0.0
70, 0.0
72, 0.0
74, 0.0
76, 0.0
78, 0.0
80, 0.0
82, 0.0
84, 0.0
86, 0.0
88, 0.0
90, 0.0
92, 0.0
94, 0.0
96, 0.0
98, 0.0
100, 0.0
102, 0.0
104, 0.0
106, 0.0
108, 0.0
110, 0.0
112, 0.0
114, 0.0
116, 0.0
118, 0.0
120, 0.0
122, 0.0
124, 0.0
126, 0.0
128, 0.0
130, 0.0
132, 0.0
134, 0.0
136, 0.0
138, 0.0
140, 0.0
142, 0.0
144, 0.0
146, 0.0
148, 0.0
150, 0.0
152, 0.0
154, 0.0
156, 0.0
158, 0.0
160, 0.0
162, 0.0
164, 0.0
166, 0.0
168, 0.0
170, 0.0
172, 0.0
174, 0.0
176, 0.0
178, 0.0
180, 0.0
182, 0.0
184, 0.0
186, 0.0
188.0, 0.0199198
190.0, 0.0207457
192.0, 0.0177016
194.0, 0.019378
196.0, 0.0187863
198.0, 0.0190174
200.0, 0.0223535
202.0, 0.0201263
204.0, 0.0205403
206.0, 0.0217679
208.0, 0.0204231
210.0, 0.0196423
212.0, 0.0188349
214.0, 0.0183591
216.0, 0.0195983
218.0, 0.0190868
220.0, 0.0190517
222.0, 0.0179045
224.0, 0.0188817
226.0, 0.0169176
228.0, 0.0172459
230.0, 0.0159948
232.0, 0.0173657
234.0, 0.0176403
236.0, 0.0177633
238.0, 0.0172815
240.0, 0.0168141
242.0, 0.01582
244.0, 0.0165877
246.0, 0.0140125
248.0, 0.0155965
250.0, 0.0162074
252.0, 0.0173056
254.0, 0.0152049
256.0, 0.015929
258.0, 0.0158
260.0, 0.0159542
262.0, 0.0168818
264.0, 0.0153846
266.0, 0.0152571
268.0, 0.0158255
270.0, 0.0166493
272.0, 0.0153768
274.0, 0.0165973
276.0, 0.016299
278.0, 0.017626
280.0, 0.0162762
282.0, 0.0160418
284.0, 0.0156076
286.0, 0.0150252
288.0, 0.0159351
290.0, 0.0163734
292.0, 0.0159371
294.0, 0.0170714
296.0, 0.0164453
298.0, 0.0192352
300.0, 0.0180979
302.0, 0.0193717
304.0, 0.0190512
306.0, 0.0186099
308.0, 0.0188156
310.0, 0.0195315
312.0, 0.0205564
314.0, 0.0202565
316.0, 0.0221422
318.0, 0.0214557
320.0, 0.0213039
322.0, 0.0216112
324.0, 0.0228969
326.0, 0.0226594
328.0, 0.0222264
330.0, 0.0239127
332.0, 0.023883
334.0, 0.0236162
336.0, 0.0253818
338.0, 0.0256102
340.0, 0.0257218
342.0, 0.0255623
344.0, 0.0258861
346.0, 0.0251001
348.0, 0.0259294
350.0, 0.0255543
352.0, 0.0257493
354.0, 0.0262609
356.0, 0.0286121
358.0, 0.0271164
360.0, 0.0276414
362.0, 0.0278851
364.0, 0.0270162
366.0, 0.0280919
368.0, 0.0275088
370.0, 0.0275173
372.0, 0.0282939
374.0, 0.0287673
376.0, 0.0270957
378.0, 0.0269165
380.0, 0.0268262
382.0, 0.0268524
384.0, 0.0274645
386.0, 0.0276405
388.0, 0.0277387
390.0, 0.027088
392.0, 0.0269726
394.0, 0.027598
396.0, 0.0270089
398.0, 0.028284
400.0, 0.028093
402.0, 0.0267936
404.0, 0.0274038
406.0, 0.02858
408.0, 0.0277049
410.0, 0.0262072
412.0, 0.0287852
414.0, 0.0276207
416.0, 0.0289727
418.0, 0.0272233
420.0, 0.0272308
422.0, 0.0278221
424.0, 0.0272134
426.0, 0.0283698
428.0, 0.0289367
430.0, 0.0291141
432.0, 0.0295553
434.0, 0.0268797
436.0, 0.0287974
438.0, 0.0294219
440.0, 0.0294771
442.0, 0.0305538
444.0, 0.0293898
446.0, 0.0300524
448.0, 0.0311441
450.0, 0.0306947
452.0, 0.0311046
454.0, 0.0316206
456.0, 0.0304936
458.0, 0.0316403
460.0, 0.0319311
462.0, 0.0330692
464.0, 0.0319455
466.0, 0.0330654
468.0, 0.03177
470.0, 0.031582
472.0, 0.0312103
474.0, 0.0310997
476.0, 0.0327268
478.0, 0.0327583
480.0, 0.0318275
482.0, 0.0327885
484.0, 0.0328364
486.0, 0.0328888
488.0, 0.0318771
490.0, 0.0329265
492.0, 0.0325289
494.0, 0.0333051
496.0, 0.0324772
498.0, 0.0338781
500.0, 0.0333057
502.0, 0.0335919
504.0, 0.0324263
506.0, 0.0326424
508.0, 0.0323108
510.0, 0.032957
512.0, 0.0322954
514.0, 0.0313687
516.0, 0.030732
518.0, 0.03008
520.0, 0.0294331
522.0, 0.0285678
524.0, 0.0289432
526.0, 0.0289593
528.0, 0.0276135
530.0, 0.0264581
532.0, 0.0239382
534.0, 0.0260224
536.0, 0.0235996
538.0, 0.022723
540.0, 0.0218936
542.0, 0.0208788
544.0, 0.0203895
546.0, 0.0192318
548.0, 0.0199609
550.0, 0.0198231
552.0, 0.0179238
554.0, 0.0180454
556.0, 0.01808
558.0, 0.0168919
560.0, 0.0168234
562.0, 0.0161992
564.0, 0.0147717
566.0, 0.0156343
568.0, 0.0154127
570.0, 0.0154788
572.0, 0.0139823
574.0, 0.0144914
576.0, 0.0117843
578.0, 0.0132891
580.0, 0.012445
582.0, 0.0127401
584.0, 0.0105344
586.0, 0.0107248
588.0, 0.00844864
590.0, 0.00838608
592.0, 0.00923794
594.0, 0.00666609
596.0, 0.0068147
598.0, 0.00602377
600.0, 0.00496585
602.0, 0.00492551
604.0, 0.00258553
606.0, 0.00281592
608.0, 0.00201885
610.0, 0.00213205
612.0, 0.00197529
614.0, 0.00141253
616.0, 0.000602622
618.0, 0.00176545
620.0, 0.00137466
622.0, 0.000758161
624.0, 0.000637253
626.0, 3.42222e-05
628.0, 0.000956848
630.0, 0.000484046
632.0, 0.000880102
634.0, 0.00261436
636.0, 0.00274787
638.0, 0.00279135
640.0, 0.00343805
642.0, 0.00344032
644.0, 0.00359597
646.0, 0.00409282
648.0, 0.00373769
650.0, 0.00447373
652.0, 0.00557362
654.0, 0.00584987
656.0, 0.00609029
658.0, 0.0073063
660.0, 0.00725298
662.0, 0.00789101
664.0, 0.00823232
666.0, 0.00673953
668.0, 0.0075492
670.0, 0.00801991
672.0, 0.00842377
674.0, 0.00907758
676.0, 0.0130462
678.0, 0.0095256
680.0, 0.0085434
682.0, 0.0109483
684.0, 0.00987012
686.0, 0.0107605
688.0, 0.00972914
690.0, 0.0107793
692.0, 0.0111608
694.0, 0.0112837
696.0, 0.0129529
698.0, 0.0133605
700.0, 0.0118414
702.0, 0.0121809
704.0, 0.0125493
706.0, 0.0126443
708.0, 0.0134517
710.0, 0.014057
712.0, 0.0138702
714.0, 0.0147603
716.0, 0.0149513
718.0, 0.0149578
720.0, 0.0153287
722.0, 0.0165858
724.0, 0.0175095
726.0, 0.0174121
728.0, 0.0184703
730.0, 0.0189318
732.0, 0.0193283
734.0, 0.0193269
736.0, 0.0201826
738.0, 0.0211791
740.0, 0.0215835
742.0, 0.0219614
744.0, 0.022823
746.0, 0.0232205
748.0, 0.0230896
750.0, 0.0258104
752.0, 0.0267115
754.0, 0.0256392
756.0, 0.028045
758.0, 0.0279797
760.0, 0.028469
762.0, 0.0287869
764.0, 0.0291992
766.0, 0.0302806
768.0, 0.0311256
770.0, 0.0311696
772.0, 0.032588
774.0, 0.0320666
776.0, 0.0322587
778.0, 0.0331706
780.0, 0.0338147
782.0, 0.0341909
784.0, 0.0355547
786.0, 0.0352267
788.0, 0.0349902
790.0, 0.0355726
792.0, 0.0364188
794.0, 0.0365459
796.0, 0.0369562
798.0, 0.0367831
800.0, 0.0379584
802.0, 0.0378018
804.0, 0.0384388
806.0, 0.0391245
808.0, 0.0396236
810.0, 0.0402497
812.0, 0.0406288
814.0, 0.0415098
816.0, 0.0420366
818.0, 0.0430617
820.0, 0.0436383
822.0, 0.0451879
824.0, 0.0466999
826.0, 0.0464959
828.0, 0.0473111
830.0, 0.0488827
832.0, 0.0503308
834.0, 0.0519328
836.0, 0.0534914
838.0, 0.0555917
840.0, 0.0566032
842.0, 0.059843
844.0, 0.0610297
846.0, 0.0645588
848.0, 0.066129
850.0, 0.0685763
852.0, 0.0720224
854.0, 0.0754105
856.0, 0.0775924
858.0, 0.0804112
860.0, 0.0830214
862.0, 0.0871266
864.0, 0.0904397
866.0, 0.0922043
868.0, 0.0975803
870.0, 0.0995695
872.0, 0.103033
874.0, 0.107932
876.0, 0.110927
878.0, 0.114576
880.0, 0.117701
882.0, 0.122162
884.0, 0.125487
886.0, 0.131779
888.0, 0.134713
890.0, 0.140379
892.0, 0.143292
894.0, 0.148446
896.0, 0.151177
898.0, 0.156212
900.0, 0.160889
902.0, 0.165881
904.0, 0.170732
906.0, 0.175279
908.0, 0.18168
910.0, 0.186898
912.0, 0.189252
914.0, 0.195163
916.0, 0.202718
918.0, 0.207918
920.0, 0.213658
922.0, 0.218125
924.0, 0.224463
926.0, 0.232139
928.0, 0.237245
930.0, 0.244573
932.0, 0.250697
934.0, 0.255087
936.0, 0.262261
938.0, 0.270042
940.0, 0.279142
942.0, 0.288397
944.0, 0.296235
946.0, 0.305742
948.0, 0.315685
950.0, 0.32591
952.0, 0.336218
954.0, 0.349195
956.0, 0.361084
958.0, 0.37068
960.0, 0.38413
962.0, 0.396702
964.0, 0.409924
966.0, 0.426596
968.0, 0.443352
970.0, 0.458434
972.0, 0.472505
974.0, 0.489097
976.0, 0.505534
978.0, 0.522984
980.0, 0.543596
982.0, 0.559877
984.0, 0.578382
986.0, 0.599268
988.0, 0.616722
990.0, 0.639961
992.0, 0.658648
994.0, 0.678894
996.0, 0.696373
998.0, 0.718218
1000.0, 0.737299
1002.0, 0.755172
1004.0, 0.772537
1006.0, 0.794278
1008.0, 0.814977
1010.0, 0.830185
1012.0, 0.849344
1014.0, 0.864799
1016.0, 0.879736
1018.0, 0.895615
1020.0, 0.911366
1022.0, 0.928743
1024.0, 0.938213
1026.0, 0.946926
1028.0, 0.956318
1030.0, 0.968076
1032.0, 0.9737
1034.0, 0.982579
1036.0, 0.989939
1038.0, 0.993689
1040.0, 0.994823
1042.0, 0.997257
1044.0, 0.998504
1046.0, 0.999642
1048.0, 0.996799
1050.0, 0.998986
1052.0, 0.992433
1054.0, 0.99319
1056.0, 0.987792
1058.0, 0.982265
1060.0, 0.972184
1062.0, 0.967085
1064.0, 0.958979
1066.0, 0.946867
1068.0, 0.937195
1070.0, 0.925976
1072.0, 0.914342
1074.0, 0.901851
1076.0, 0.891306
1078.0, 0.87738
1080.0, 0.86342
1082.0, 0.851099
1084.0, 0.83839
1086.0, 0.822697
1088.0, 0.806535
1090.0, 0.791289
1092.0, 0.7794
1094.0, 0.763422
1096.0, 0.747807
1098.0, 0.736596
1100.0, 0.722312
1102.0, 0.704893
1104.0, 0.691036
1106.0, 0.676072
1108.0, 0.661675
1110.0, 0.648952
1112.0, 0.635734
1114.0, 0.61913
1116.0, 0.604788
1118.0, 0.592221
1120.0, 0.580669
1122.0, 0.567614
1124.0, 0.553172
1126.0, 0.543144
1128.0, 0.530556
1130.0, 0.51832
1132.0, 0.506689
1134.0, 0.496217
1136.0, 0.49086
1138.0, 0.481187
1140.0, 0.470927
1142.0, 0.461769
1144.0, 0.45551
1146.0, 0.448064
1148.0, 0.441925
1150.0, 0.434145
1152.0, 0.427243
1154.0, 0.421761
1156.0, 0.415082
1158.0, 0.410303
1160.0, 0.405259
1162.0, 0.40189
1164.0, 0.399939
1166.0, 0.395341
1168.0, 0.391622
1170.0, 0.388551
1172.0, 0.387306
1174.0, 0.384644
1176.0, 0.383094
1178.0, 0.382756
1180.0, 0.380131
1182.0, 0.381536
1184.0, 0.37751
1186.0, 0.379615
1188.0, 0.379429
1190.0, 0.379293
1192.0, 0.378212
1194.0, 0.381844
1196.0, 0.379642
1198.0, 0.381321
1200.0, 0.381474
1202.0, 0.38345
1204.0, 0.384573
1206.0, 0.386393
1208.0, 0.388193
1210.0, 0.390672
1212.0, 0.392986
1214.0, 0.394875
1216.0, 0.393475
1218.0, 0.393532
1220.0, 0.394626
1222.0, 0.399771
1224.0, 0.401421
1226.0, 0.401563
1228.0, 0.401589
1230.0, 0.405402
1232.0, 0.405491
1234.0, 0.407365
1236.0, 0.406235
1238.0, 0.407631
1240.0, 0.409618
1242.0, 0.413723
1244.0, 0.414114
1246.0, 0.414685
1248.0, 0.414233
1250.0, 0.412394
1252.0, 0.416227
1254.0, 0.417111
1256.0, 0.416286
1258.0, 0.416073
1260.0, 0.416307
1262.0, 0.415885
1264.0, 0.415751
1266.0, 0.414599
1268.0, 0.415284
1270.0, 0.413245
1272.0, 0.411198
1274.0, 0.408676
1276.0, 0.409006
1278.0, 0.40834
1280.0, 0.406116
1282.0, 0.40376
1284.0, 0.40259
1286.0, 0.401195
1288.0, 0.397911
1290.0, 0.396232
1292.0, 0.394577
1294.0, 0.393641
1296.0, 0.387137
1298.0, 0.385235
1300.0, 0.380055
1302.0, 0.377541
1304, 0.0
1306, 0.0
1308, 0.0
1310, 0.0
1312, 0.0
1314, 0.0
1316, 0.0
1318, 0.0
1320, 0.0
1322, 0.0
1324, 0.0
1326, 0.0
1328, 0.0
1330, 0.0
1332, 0.0
1334, 0.0
1336, 0.0
1338, 0.0
1340, 0.0
1342, 0.0
1344, 0.0
1346, 0.0
1348, 0.0
1350, 0.0
1352, 0.0
1354, 0.0
1356, 0.0
1358, 0.0
1360, 0.0
1362, 0.0
1364, 0.0
1366, 0.0
1368, 0.0
1370, 0.0
1372, 0.0
1374, 0.0
1376, 0.0
1378, 0.0
1380, 0.0
1382, 0.0
1384, 0.0
1386, 0.0
1388, 0.0
1390, 0.0
1392, 0.0
1394, 0.0
1396, 0.0
1398, 0.0
1400, 0.0
1402, 0.0
1404, 0.0
1406, 0.0
1408, 0.0
1410, 0.0
1412, 0.0
1414, 0.0
1416, 0.0
1418, 0.0
1420, 0.0
1422, 0.0
1424, 0.0
1426, 0.0
1428, 0.0
1430, 0.0
1432, 0.0
1434, 0.0
1436, 0.0
1438, 0.0
1440, 0.0
1442, 0.0
1444, 0.0
1446, 0.0
1448, 0.0
1450, 0.0
1452, 0.0
1454, 0.0
1456, 0.0
1458, 0.0
1460, 0.0
1462, 0.0
1464, 0.0
1466, 0.0
1468, 0.0
1470, 0.0
1472, 0.0
1474, 0.0
1476, 0.0
1478, 0.0
1480, 0.0
1482, 0.0
1484, 0.0
1486, 0.0
1488, 0.0
1490, 0.0
1492, 0.0
1494, 0.0
1496, 0.0
1498, 0.0
1500, 0.0
1502, 0.0
1504, 0.0
1506, 0.0
1508, 0.0
1510, 0.0
1512, 0.0
1514, 0.0
1516, 0.0
1518, 0.0
1520, 0.0
1522, 0.0
1524, 0.0
1526, 0.0
1528, 0.0
1530, 0.0
1532, 0.0
1534, 0.0
1536, 0.0
1538, 0.0
1540, 0.0
1542, 0.0
1544, 0.0
1546, 0.0
1548, 0.0
1550, 0.0
1552, 0.0
1554, 0.0
1556, 0.0
1558, 0.0
1560, 0.0
1562, 0.0
1564, 0.0
1566, 0.0
1568, 0.0
1570, 0.0
1572, 0.0
1574, 0.0
1576, 0.0
1578, 0.0
1580, 0.0
1582, 0.0
1584, 0.0
1586, 0.0
1588, 0.0
1590, 0.0
1592, 0.0
1594, 0.0
1596, 0.0
1598, 0.0
1599, 0.0