File: raw data/Dataset_2/Protoferroanthophyllite/Protoferroanthophyllite__R060053__Raman__532__0__unoriented__Raman_Data_Processed__16814.txt
30, 0.0
32, 0.0
34, 0.0
36, 0.0
38, 0.0
40, 0.0
42, 0.0
44, 0.0
46, 0.0
48, 0.0
50, 0.0
52, 0.0
54, 0.0
56, 0.0
58, 0.0
60, 0.0
62, 0.0
64, 0.0
66, 0.0
68, 0.0
70, 0.0
72, 0.0
74, 0.0
76, 0.0
78, 0.0
80, 0.0
82, 0.0
84, 0.0
86, 0.0
88, 0.0
90, 0.0
92, 0.0
94, 0.0
96, 0.0
98, 0.0
100, 0.0
102, 0.0
104, 0.0
106, 0.0
108, 0.0
110, 0.0
112, 0.0
114, 0.0
116, 0.0
118, 0.0
120, 0.0
122, 0.0
124, 0.0
126, 0.0
128, 0.0
130, 0.0
132.0, 0.000384157
134.0, 0.000140066
136.0, 0.00148791
138.0, 0.00416789
140.0, 0.00593677
142.0, 0.0121926
144.0, 0.0255066
146.0, 0.0374583
148.0, 0.0415751
150.0, 0.0357175
152.0, 0.0225251
154.0, 0.015415
156.0, 0.0137648
158.0, 0.0181552
160.0, 0.0303306
162.0, 0.0443857
164.0, 0.0644025
166.0, 0.0837041
168.0, 0.11398
170.0, 0.144237
172.0, 0.173767
174.0, 0.190619
176.0, 0.188362
178.0, 0.177255
180.0, 0.157732
182.0, 0.136334
184.0, 0.120195
186.0, 0.105258
188.0, 0.0928963
190.0, 0.0832135
192.0, 0.0737485
194.0, 0.0704164
196.0, 0.0666831
198.0, 0.0657433
200.0, 0.0670232
202.0, 0.069416
204.0, 0.0709021
206.0, 0.0690351
208.0, 0.0714364
210.0, 0.0727327
212.0, 0.072355
214.0, 0.0701538
216.0, 0.0693412
218.0, 0.0658415
220.0, 0.0621967
222.0, 0.0544395
224.0, 0.0468823
226.0, 0.038859
228.0, 0.0324494
230.0, 0.0283539
232.0, 0.0229714
234.0, 0.0194037
236.0, 0.0141857
238.0, 0.0126948
240.0, 0.0131218
242.0, 0.0111902
244.0, 0.0103339
246.0, 0.0111869
248.0, 0.0125021
250.0, 0.010027
252.0, 0.0102373
254.0, 0.0101049
256.0, 0.00629701
258.0, 0.00418418
260.0, 0.00330861
262.0, 0.00113213
264.0, 0.0012953
266.0, 0.000562961
268.0, 0.00222312
270.0, 0.00157188
272.0, 0.00149649
274.0, 0.00397734
276.0, 0.00151257
278.0, 0.0017945
280.0, 0.00389427
282.0, 3.61786e-05
284.0, 0.00153059
286.0, 0.00113
288.0, 0.00138758
290.0, 0.00273513
292.0, 0.00233359
294.0, 0.00316625
296.0, 0.00702232
298.0, 0.00739849
300.0, 0.00966521
302.0, 0.00814792
304.0, 0.00784181
306.0, 0.00948471
308.0, 0.0105394
310.0, 0.00936612
312.0, 0.0119694
314.0, 0.0137307
316.0, 0.0138789
318.0, 0.0106888
320.0, 0.0127789
322.0, 0.0138711
324.0, 0.0153618
326.0, 0.0205349
328.0, 0.0249519
330.0, 0.0342957
332.0, 0.0398461
334.0, 0.0483039
336.0, 0.0538049
338.0, 0.0595702
340.0, 0.0655703
342.0, 0.0643556
344.0, 0.0608501
346.0, 0.0561079
348.0, 0.0496574
350.0, 0.0488898
352.0, 0.0515713
354.0, 0.0559611
356.0, 0.0655627
358.0, 0.07932
360.0, 0.0987684
362.0, 0.123062
364.0, 0.151966
366.0, 0.183356
368.0, 0.210277
370.0, 0.236706
372.0, 0.248046
374.0, 0.24444
376.0, 0.233525
378.0, 0.207392
380.0, 0.175778
382.0, 0.139202
384.0, 0.110547
386.0, 0.0872022
388.0, 0.0710367
390.0, 0.059764
392.0, 0.0511482
394.0, 0.0487416
396.0, 0.0434506
398.0, 0.0391847
400.0, 0.0342183
402.0, 0.0288424
404.0, 0.0254015
406.0, 0.0188232
408.0, 0.0168176
410.0, 0.0150997
412.0, 0.0154157
414.0, 0.0144101
416.0, 0.015341
418.0, 0.0146758
420.0, 0.0125838
422.0, 0.0135918
424.0, 0.00793677
426.0, 0.00589645
428.0, 0.00314987
430.0, 0.00240153
432.0, 0.0021783
434.0, 0.00238362
436.0, 0.000633562
438.0, 0.00186482
440.0, 0.00227043
442.0, 0.00163699
444.0, 0.000326166
446.0, 0.000534484
448.0, 0.00214325
450.0, 9.76099e-05
452.0, 0.000496384
454.0, 0.000797017
456.0, 0.00110393
458.0, 0.00117191
460.0, 0.00321207
462.0, 0.00429297
464.0, 0.00618961
466.0, 0.00558175
468.0, 0.00737034
470.0, 0.00691528
472.0, 0.00669997
474.0, 0.00784489
476.0, 0.00878745
478.0, 0.00959977
480.0, 0.0110235
482.0, 0.0138854
484.0, 0.0153996
486.0, 0.0187849
488.0, 0.0229183
490.0, 0.0275991
492.0, 0.030147
494.0, 0.0349503
496.0, 0.0422075
498.0, 0.0467584
500.0, 0.0549771
502.0, 0.0626394
504.0, 0.0741906
506.0, 0.083029
508.0, 0.0907966
510.0, 0.0974829
512.0, 0.101679
514.0, 0.10244
516.0, 0.105243
518.0, 0.103128
520.0, 0.0941614
522.0, 0.082915
524.0, 0.0715784
526.0, 0.0575939
528.0, 0.0475771
530.0, 0.0392643
532.0, 0.0342816
534.0, 0.0287252
536.0, 0.0239481
538.0, 0.0227108
540.0, 0.0214871
542.0, 0.0180999
544.0, 0.0181126
546.0, 0.0186839
548.0, 0.0178409
550.0, 0.0168275
552.0, 0.0171288
554.0, 0.0169473
556.0, 0.0146248
558.0, 0.0138254
560.0, 0.0145849
562.0, 0.0131232
564.0, 0.00746353
566.0, 0.00670443
568.0, 0.00812767
570.0, 0.00384669
572.0, 0.00158825
574.0, 0.00115982
576.0, 0.000635204
578.0, 0.000332274
580.0, 0.0019832
582.0, 0.000540845
584.0, 0.000996164
586.0, 0.000145025
588.0, 0.000819592
590.0, 0.00130951
592.0, 0.000490749
594.0, 0.000524194
596.0, 0.000441722
598.0, 0.00106146
600.0, 0.00105561
602.0, 0.00157512
604.0, 0.00268504
606.0, 0.00187048
608.0, 0.00265715
610.0, 0.00571889
612.0, 0.00620089
614.0, 0.00931294
616.0, 0.00951165
618.0, 0.0136443
620.0, 0.0173162
622.0, 0.0225814
624.0, 0.0274156
626.0, 0.0312152
628.0, 0.0389477
630.0, 0.0462796
632.0, 0.0565818
634.0, 0.0664097
636.0, 0.0796759
638.0, 0.0979974
640.0, 0.124934
642.0, 0.163425
644.0, 0.216335
646.0, 0.289021
648.0, 0.387896
650.0, 0.510001
652.0, 0.639133
654.0, 0.768064
656.0, 0.890898
658.0, 0.978931
660.0, 0.993072
662.0, 0.904808
664.0, 0.731737
666.0, 0.542079
668.0, 0.383148
670.0, 0.275234
672.0, 0.203482
674.0, 0.156446
676.0, 0.118902
678.0, 0.0957695
680.0, 0.0778996
682.0, 0.0650634
684.0, 0.0542308
686.0, 0.0435159
688.0, 0.0363811
690.0, 0.0309765
692.0, 0.0263425
694.0, 0.0235109
696.0, 0.0171552
698.0, 0.014657
700.0, 0.0120108
702.0, 0.00941214
704.0, 0.00587568
706.0, 0.00508603
708.0, 0.00413812
710.0, 0.00161265
712.0, 0.000179275
714.0, 0.000613164
716.0, 0.00095182
718.0, 0.00114847
720.0, 0.00110146
722.0, 0.00201301
724.0, 0.00112899
726.0, 0.00153977
728.0, 0.00248422
730.0, 0.00565392
732.0, 0.0100183
734.0, 0.0142397
736.0, 0.0191146
738.0, 0.0235503
740.0, 0.0247278
742.0, 0.027888
744.0, 0.0259037
746.0, 0.0248074
748.0, 0.0233713
750.0, 0.0250283
752.0, 0.023874
754.0, 0.0192568
756.0, 0.0159743
758.0, 0.0123676
760.0, 0.0110376
762.0, 0.0108254
764.0, 0.0144128
766.0, 0.0131075
768.0, 0.0179636
770.0, 0.0203553
772.0, 0.022075
774.0, 0.0215373
776.0, 0.0222361
778.0, 0.0193721
780.0, 0.0154794
782.0, 0.011849
784.0, 0.00892971
786.0, 0.00553689
788.0, 0.00484622
790.0, 0.00342011
792.0, 0.00160892
794.0, 0.00191945
796.0, 0.000395098
798.0, 0.000487974
800.0, 0.00139727
802.0, 0.000351804
804.0, 0.000315453
806.0, 0.000247346
808.0, 0.00205315
810.0, 0.00144727
812.0, 0.00108424
814.0, 0.00271357
816.0, 0.00217634
818.0, 0.000681869
820.0, 0.00238944
822.0, 0.00172011
824.0, 0.00171145
826.0, 0.00251202
828.0, 0.00389664
830.0, 0.00224681
832.0, 0.00389824
834.0, 0.00367519
836.0, 0.00308984
838.0, 0.00274423
840.0, 0.00417754
842.0, 0.00313308
844.0, 0.00377277
846.0, 0.00187198
848.0, 0.0026959
850.0, 0.00141834
852.0, 0.00349498
854.0, 0.00309767
856.0, 0.000337079
858.0, 0.00169658
860.0, 0.000348468
862.0, 0.000961419
864.0, 0.00105617
866.0, 3.45042e-05
868.0, 0.000914577
870.0, 0.000119421
872.0, 8.14379e-05
874.0, 0.00120211
876.0, 0.000584378
878.0, 0.00183101
880.0, 0.00328378
882.0, 0.003405
884.0, 0.00315579
886.0, 0.00546836
888.0, 0.00782201
890.0, 0.00888118
892.0, 0.0109158
894.0, 0.0123097
896.0, 0.0136419
898.0, 0.0159119
900.0, 0.0192629
902.0, 0.0238493
904.0, 0.0268416
906.0, 0.0317518
908.0, 0.0317648
910.0, 0.0339227
912.0, 0.0348099
914.0, 0.034249
916.0, 0.0305126
918.0, 0.0260236
920.0, 0.0210628
922.0, 0.0155759
924.0, 0.0123488
926.0, 0.00939937
928.0, 0.00487935
930.0, 0.00424338
932.0, 0.00227328
934.0, 0.000297444
936.0, 0.0013121
938.0, 0.00137975
940.0, 0.001731
942.0, 0.00223987
944.0, 0.000425185
946.0, 0.00024791
948.0, 0.000802512
950.0, 0.00311464
952.0, 0.00290373
954.0, 0.00473819
956.0, 0.00840421
958.0, 0.0156104
960.0, 0.0189264
962.0, 0.0255529
964.0, 0.0348979
966.0, 0.0471535
968.0, 0.0541645
970.0, 0.061554
972.0, 0.0649835
974.0, 0.0679205
976.0, 0.06325
978.0, 0.0597805
980.0, 0.0545513
982.0, 0.0513375
984.0, 0.0540897
986.0, 0.0595211
988.0, 0.065482
990.0, 0.0699195
992.0, 0.0782792
994.0, 0.0855272
996.0, 0.0873645
998.0, 0.0853847
1000.0, 0.0798674
1002.0, 0.075129
1004.0, 0.0691674
1006.0, 0.0711261
1008.0, 0.0747414
1010.0, 0.0877211
1012.0, 0.111619
1014.0, 0.138169
1016.0, 0.177265
1018.0, 0.215839
1020.0, 0.26261
1022.0, 0.300448
1024.0, 0.326226
1026.0, 0.325199
1028.0, 0.303113
1030.0, 0.261419
1032.0, 0.211403
1034.0, 0.164823
1036.0, 0.12637
1038.0, 0.0962732
1040.0, 0.0774016
1042.0, 0.0596987
1044.0, 0.0453022
1046.0, 0.0359376
1048.0, 0.0282204
1050.0, 0.0216499
1052.0, 0.0168163
1054.0, 0.0144302
1056.0, 0.0103817
1058.0, 0.00919028
1060.0, 0.00708559
1062.0, 0.00628284
1064.0, 0.00421689
1066.0, 0.00275047
1068.0, 0.00130595
1070.0, 0.000626066
1072.0, 0.00226767
1074.0, 0.00183796
1076.0, 0.000707831
1078.0, 0.00213311
1080.0, 0.00142112
1082.0, 0.000757752
1084.0, 0.000276713
1086.0, 0.00269528
1088.0, 0.00610264
1090.0, 0.0106547
1092.0, 0.0155393
1094.0, 0.0187491
1096.0, 0.0243793
1098.0, 0.0273556
1100.0, 0.0306149
1102.0, 0.0271507
1104.0, 0.0232481
1106.0, 0.0173829
1108.0, 0.0147616
1110.0, 0.0105093
1112.0, 0.00859939
1114.0, 0.00653765
1116.0, 0.00791345
1118.0, 0.00526266
1120.0, 0.00600122
1122.0, 0.00317398
1124.0, 0.00382096
1126.0, 0.00441455
1128.0, 0.00436331
1130.0, 0.00249027
1132.0, 0.00162369
1134.0, 0.00245404
1136.0, 0.00184291
1138.0, 0.000214543
1140.0, 0.00222332
1142.0, 0.00126571
1144.0, 0.000428923
1146.0, 0.000816326
1148.0, 0.000878712
1150.0, 0.000603527
1152.0, 0.00155016
1154.0, 0.000855846
1156.0, 0.000504558
1158.0, 0.00131164
1160.0, 0.000581045
1162.0, 0.00239594
1164.0, 0.00356945
1166.0, 0.000970962
1168.0, 0.00141904
1170.0, 0.00039329
1172.0, 0.000338515
1174.0, 0.0017729
1176.0, 0.00139864
1178.0, 0.00213791
1180.0, 0.00247444
1182.0, 0.00219048
1184.0, 0.000649863
1186.0, 0.00172883
1188.0, 0.00127666
1190.0, 0.00156369
1192.0, 0.00114174
1194.0, 0.0031318
1196.0, 0.00389835
1198.0, 0.00141402
1200.0, 0.00254357
1202.0, 0.0028865
1204.0, 0.00195728
1206.0, 0.0019599
1208.0, 0.00499039
1210.0, 0.00228712
1212.0, 0.00413814
1214.0, 0.0027196
1216.0, 0.0005994
1218.0, 0.000608757
1220.0, 0.00119516
1222.0, 0.00302204
1224.0, 0.00150549
1226.0, 0.00281439
1228.0, 0.00063305
1230.0, 0.00204638
1232.0, 0.00115755
1234.0, 0.00238795
1236.0, 0.00264348
1238.0, 0.0021527
1240.0, 0.00352154
1242.0, 0.00132022
1244.0, 0.00329409
1246.0, 0.00283725
1248.0, 0.00319231
1250.0, 0.00166993
1252.0, 0.00261755
1254.0, 0.00238616
1256.0, 0.00325768
1258.0, 0.00411919
1260.0, 0.00278333
1262.0, 0.00154002
1264.0, 0.00260146
1266.0, 0.00190526
1268.0, 0.00209541
1270.0, 0.00307219
1272.0, 0.00073349
1274.0, 0.00140472
1276.0, 0.00183453
1278.0, 0.00201746
1280.0, 0.000565538
1282.0, 0.00319482
1284.0, 0.00193946
1286.0, 0.00278445
1288.0, 0.0018338
1290.0, 0.00016368
1292.0, 0.00407463
1294.0, 0.00230076
1296.0, 0.00185392
1298.0, 0.0017902
1300.0, 0.00299257
1302.0, 0.00183764
1304.0, 0.00117958
1306.0, 0.00159968
1308.0, 0.00126074
1310.0, 0.00387764
1312.0, 0.00218914
1314.0, 0.00239654
1316.0, 0.000256651
1318.0, 0.000639001
1320, 0.0
1322, 0.0
1324, 0.0
1326, 0.0
1328, 0.0
1330, 0.0
1332, 0.0
1334, 0.0
1336, 0.0
1338, 0.0
1340, 0.0
1342, 0.0
1344, 0.0
1346, 0.0
1348, 0.0
1350, 0.0
1352, 0.0
1354, 0.0
1356, 0.0
1358, 0.0
1360, 0.0
1362, 0.0
1364, 0.0
1366, 0.0
1368, 0.0
1370, 0.0
1372, 0.0
1374, 0.0
1376, 0.0
1378, 0.0
1380, 0.0
1382, 0.0
1384, 0.0
1386, 0.0
1388, 0.0
1390, 0.0
1392, 0.0
1394, 0.0
1396, 0.0
1398, 0.0
1400, 0.0
1402, 0.0
1404, 0.0
1406, 0.0
1408, 0.0
1410, 0.0
1412, 0.0
1414, 0.0
1416, 0.0
1418, 0.0
1420, 0.0
1422, 0.0
1424, 0.0
1426, 0.0
1428, 0.0
1430, 0.0
1432, 0.0
1434, 0.0
1436, 0.0
1438, 0.0
1440, 0.0
1442, 0.0
1444, 0.0
1446, 0.0
1448, 0.0
1450, 0.0
1452, 0.0
1454, 0.0
1456, 0.0
1458, 0.0
1460, 0.0
1462, 0.0
1464, 0.0
1466, 0.0
1468, 0.0
1470, 0.0
1472, 0.0
1474, 0.0
1476, 0.0
1478, 0.0
1480, 0.0
1482, 0.0
1484, 0.0
1486, 0.0
1488, 0.0
1490, 0.0
1492, 0.0
1494, 0.0
1496, 0.0
1498, 0.0
1500, 0.0
1502, 0.0
1504, 0.0
1506, 0.0
1508, 0.0
1510, 0.0
1512, 0.0
1514, 0.0
1516, 0.0
1518, 0.0
1520, 0.0
1522, 0.0
1524, 0.0
1526, 0.0
1528, 0.0
1530, 0.0
1532, 0.0
1534, 0.0
1536, 0.0
1538, 0.0
1540, 0.0
1542, 0.0
1544, 0.0
1546, 0.0
1548, 0.0
1550, 0.0
1552, 0.0
1554, 0.0
1556, 0.0
1558, 0.0
1560, 0.0
1562, 0.0
1564, 0.0
1566, 0.0
1568, 0.0
1570, 0.0
1572, 0.0
1574, 0.0
1576, 0.0
1578, 0.0
1580, 0.0
1582, 0.0
1584, 0.0
1586, 0.0
1588, 0.0
1590, 0.0
1592, 0.0
1594, 0.0
1596, 0.0
1598, 0.0
1599, 0.0