File: raw data/Dataset_2/Protoferroanthophyllite/Protoferroanthophyllite__R060053__Raman__785__0__unoriented__Raman_Data_Processed__16818.txt
30, 0.0
32, 0.0
34, 0.0
36, 0.0
38, 0.0
40, 0.0
42, 0.0
44, 0.0
46, 0.0
48, 0.0
50, 0.0
52, 0.0
54, 0.0
56, 0.0
58, 0.0
60, 0.0
62, 0.0
64, 0.0
66, 0.0
68, 0.0
70, 0.0
72, 0.0
74, 0.0
76, 0.0
78, 0.0
80, 0.0
82, 0.0
84, 0.0
86, 0.0
88, 0.0
90, 0.0
92, 0.0
94, 0.0
96, 0.0
98, 0.0
100, 0.0
102, 0.0
104, 0.0
106, 0.0
108, 0.0
110, 0.0
112, 0.0
114, 0.0
116, 0.0
118, 0.0
120, 0.0
122, 0.0
124, 0.0
126, 0.0
128, 0.0
130, 0.0
132, 0.0
134, 0.0
136, 0.0
138.0, 0.00410366
140.0, 0.000516454
142.0, 0.00408413
144.0, 0.0270779
146.0, 0.0680653
148.0, 0.10709
150.0, 0.124008
152.0, 0.108077
154.0, 0.0837197
156.0, 0.0615942
158.0, 0.0688026
160.0, 0.101575
162.0, 0.135116
164.0, 0.182987
166.0, 0.241185
168.0, 0.303991
170.0, 0.374326
172.0, 0.450924
174.0, 0.507829
176.0, 0.516627
178.0, 0.486036
180.0, 0.443905
182.0, 0.396255
184.0, 0.348266
186.0, 0.295531
188.0, 0.269673
190.0, 0.237589
192.0, 0.210689
194.0, 0.192733
196.0, 0.191394
198.0, 0.189855
200.0, 0.174629
202.0, 0.179016
204.0, 0.17963
206.0, 0.175608
208.0, 0.163212
210.0, 0.174069
212.0, 0.169334
214.0, 0.168999
216.0, 0.17753
218.0, 0.179336
220.0, 0.171093
222.0, 0.168537
224.0, 0.139336
226.0, 0.128445
228.0, 0.112904
230.0, 0.0902397
232.0, 0.0827318
234.0, 0.0696382
236.0, 0.0666502
238.0, 0.0548653
240.0, 0.04569
242.0, 0.038705
244.0, 0.0395951
246.0, 0.0373788
248.0, 0.0288921
250.0, 0.030424
252.0, 0.0306117
254.0, 0.0255042
256.0, 0.0253266
258.0, 0.0164509
260.0, 0.00879801
262.0, 0.00710249
264.0, 0.00785226
266.0, 0.00961322
268.0, 0.00394783
270.0, 0.004083
272.0, 0.00918804
274.0, 0.00474448
276.0, 0.00482716
278.0, 0.00863906
280.0, 0.00536417
282.0, 0.000862311
284.0, 0.000598378
286.0, 0.00413133
288.0, 0.00335109
290.0, 0.00430746
292.0, 0.00752352
294.0, 0.0133237
296.0, 0.0177906
298.0, 0.0242015
300.0, 0.023126
302.0, 0.0321201
304.0, 0.0317791
306.0, 0.0386362
308.0, 0.0407797
310.0, 0.0455585
312.0, 0.0525809
314.0, 0.0499714
316.0, 0.0452808
318.0, 0.0361507
320.0, 0.031288
322.0, 0.0361494
324.0, 0.0319706
326.0, 0.0376302
328.0, 0.0412209
330.0, 0.0520684
332.0, 0.0532292
334.0, 0.061398
336.0, 0.0719383
338.0, 0.0902449
340.0, 0.088237
342.0, 0.0891857
344.0, 0.0927349
346.0, 0.0831275
348.0, 0.0779547
350.0, 0.0791206
352.0, 0.0778495
354.0, 0.0780125
356.0, 0.0852362
358.0, 0.110508
360.0, 0.131243
362.0, 0.144889
364.0, 0.182363
366.0, 0.216792
368.0, 0.251613
370.0, 0.283127
372.0, 0.31324
374.0, 0.314327
376.0, 0.314976
378.0, 0.288963
380.0, 0.256751
382.0, 0.207131
384.0, 0.169191
386.0, 0.136624
388.0, 0.101061
390.0, 0.0995298
392.0, 0.0853486
394.0, 0.0797866
396.0, 0.0788064
398.0, 0.0673602
400.0, 0.066477
402.0, 0.0554061
404.0, 0.0547246
406.0, 0.0432141
408.0, 0.0347921
410.0, 0.0357819
412.0, 0.0308768
414.0, 0.0301551
416.0, 0.0242835
418.0, 0.0213603
420.0, 0.0119628
422.0, 0.0124455
424.0, 0.00740342
426.0, 0.00768894
428.0, 0.00157944
430.0, 0.000316022
432.0, 0.00874534
434.0, 0.00532492
436.0, 0.00270712
438.0, 0.000404258
440.0, 0.00255912
442.0, 0.00105168
444.0, 0.000970328
446.0, 0.00587422
448.0, 0.00346943
450.0, 0.00503698
452.0, 0.00195422
454.0, 0.0059654
456.0, 0.00738213
458.0, 0.0197882
460.0, 0.0212886
462.0, 0.0206363
464.0, 0.0308349
466.0, 0.0360875
468.0, 0.0385422
470.0, 0.0335648
472.0, 0.0388752
474.0, 0.0390319
476.0, 0.0335651
478.0, 0.0386169
480.0, 0.0470595
482.0, 0.0345787
484.0, 0.0406444
486.0, 0.0459798
488.0, 0.0522306
490.0, 0.0496208
492.0, 0.0518369
494.0, 0.066085
496.0, 0.0722957
498.0, 0.0829329
500.0, 0.0953168
502.0, 0.106836
504.0, 0.125714
506.0, 0.147942
508.0, 0.171673
510.0, 0.189691
512.0, 0.209259
514.0, 0.232103
516.0, 0.248372
518.0, 0.255403
520.0, 0.236128
522.0, 0.207804
524.0, 0.181855
526.0, 0.14817
528.0, 0.125852
530.0, 0.101674
532.0, 0.0796831
534.0, 0.0682552
536.0, 0.0551535
538.0, 0.0501603
540.0, 0.04534
542.0, 0.0361653
544.0, 0.0367519
546.0, 0.0308519
548.0, 0.0261831
550.0, 0.0194307
552.0, 0.0192184
554.0, 0.0152341
556.0, 0.0215991
558.0, 0.0228934
560.0, 0.0192816
562.0, 0.0141253
564.0, 0.00947195
566.0, 0.00784616
568.0, 0.00655027
570.0, 0.00673504
572.0, 0.00319733
574.0, 0.0015048
576.0, 0.00186217
578.0, 0.00109274
580.0, 0.00094003
582.0, 0.00510146
584.0, 0.003222
586.0, 0.00164867
588.0, 0.00276742
590.0, 0.00362105
592.0, 0.00252488
594.0, 0.00110291
596.0, 0.00233452
598.0, 0.000556361
600.0, 0.000960023
602.0, 0.00198651
604.0, 0.00350833
606.0, 0.00393854
608.0, 0.00174788
610.0, 0.00507236
612.0, 0.0124323
614.0, 0.0100328
616.0, 0.0149512
618.0, 0.0177368
620.0, 0.0243261
622.0, 0.028437
624.0, 0.0245273
626.0, 0.0443798
628.0, 0.0504272
630.0, 0.0549054
632.0, 0.0583188
634.0, 0.0771582
636.0, 0.0906294
638.0, 0.108963
640.0, 0.128552
642.0, 0.165522
644.0, 0.209315
646.0, 0.274182
648.0, 0.363598
650.0, 0.46638
652.0, 0.580691
654.0, 0.712775
656.0, 0.840959
658.0, 0.964604
660.0, 0.996262
662.0, 0.918091
664.0, 0.761481
666.0, 0.570023
668.0, 0.408515
670.0, 0.291035
672.0, 0.209188
674.0, 0.16243
676.0, 0.117163
678.0, 0.104829
680.0, 0.0860349
682.0, 0.0692967
684.0, 0.0489094
686.0, 0.051874
688.0, 0.0381894
690.0, 0.0371538
692.0, 0.0259268
694.0, 0.0220403
696.0, 0.0217887
698.0, 0.0166258
700.0, 0.0116154
702.0, 0.011014
704.0, 0.00447229
706.0, 0.00849053
708.0, 0.00367411
710.0, 0.00135312
712.0, 0.000781994
714.0, 0.00235778
716.0, 0.00125247
718.0, 0.00382622
720.0, 0.00179476
722.0, 0.00248574
724.0, 0.00169741
726.0, 0.00341289
728.0, 0.00364393
730.0, 0.0115023
732.0, 0.013424
734.0, 0.0169236
736.0, 0.0302889
738.0, 0.0300605
740.0, 0.0398506
742.0, 0.0398246
744.0, 0.0391428
746.0, 0.0313233
748.0, 0.033902
750.0, 0.0349786
752.0, 0.0290862
754.0, 0.0254982
756.0, 0.0217973
758.0, 0.0185198
760.0, 0.00969852
762.0, 0.00954949
764.0, 0.00515971
766.0, 0.0122183
768.0, 0.0118044
770.0, 0.00404349
772.0, 0.00536808
774.0, 0.0136683
776.0, 0.00736427
778.0, 0.0085742
780.0, 0.000803009
782.0, 0.000800169
784.0, 0.00211318
786.0, 0.000434168
788.0, 0.00307366
790.0, 0.00634921
792.0, 0.00389614
794.0, 0.00559878
796.0, 0.00119174
798.0, 0.00332428
800.0, 0.00600191
802.0, 0.00146094
804.0, 0.0027765
806.0, 0.00747144
808.0, 0.00357185
810.0, 0.0039252
812.0, 0.00643903
814.0, 0.00425961
816.0, 0.0112916
818.0, 0.00649891
820.0, 0.00927172
822.0, 0.0086759
824.0, 0.00484248
826.0, 0.00735334
828.0, 0.00567103
830.0, 0.0066043
832.0, 0.0107264
834.0, 0.00257439
836.0, 0.00710064
838.0, 0.00482712
840.0, 0.00521822
842.0, 0.00356971
844.0, 0.00790647
846.0, 0.00617074
848.0, 0.005703
850.0, 0.00555455
852.0, 0.00594667
854.0, 0.0104086
856.0, 0.00305886
858.0, 0.00777321
860.0, 0.000570087
862.0, 0.00293754
864.0, 0.00216719
866.0, 0.00334443
868.0, 0.00138239
870.0, 0.00191117
872.0, 0.00190774
874.0, 0.00317455
876.0, 0.00278253
878.0, 0.00787687
880.0, 0.00690118
882.0, 0.00169293
884.0, 0.00663474
886.0, 0.00813031
888.0, 0.013008
890.0, 0.0182954
892.0, 0.0147477
894.0, 0.0183319
896.0, 0.0184876
898.0, 0.0269207
900.0, 0.030004
902.0, 0.031338
904.0, 0.0347532
906.0, 0.0410393
908.0, 0.0373462
910.0, 0.0438375
912.0, 0.0423762
914.0, 0.0394424
916.0, 0.041135
918.0, 0.0316441
920.0, 0.0285036
922.0, 0.0183225
924.0, 0.0206932
926.0, 0.0100549
928.0, 0.0116934
930.0, 0.0116744
932.0, 0.00743442
934.0, 0.00894156
936.0, 0.00793687
938.0, 0.00528453
940.0, 0.00481328
942.0, 0.00185099
944.0, 0.00169532
946.0, 0.00141411
948.0, 0.00360864
950.0, 0.00439975
952.0, 0.00792393
954.0, 0.00752903
956.0, 0.00777556
958.0, 0.00991583
960.0, 0.0135969
962.0, 0.0192382
964.0, 0.0226418
966.0, 0.0352016
968.0, 0.0429754
970.0, 0.0404153
972.0, 0.045926
974.0, 0.0468149
976.0, 0.0502792
978.0, 0.0428643
980.0, 0.0404511
982.0, 0.0339223
984.0, 0.04158
986.0, 0.0419576
988.0, 0.0502733
990.0, 0.0527066
992.0, 0.0651626
994.0, 0.0698148
996.0, 0.0829882
998.0, 0.085523
1000.0, 0.0780384
1002.0, 0.0764346
1004.0, 0.0705143
1006.0, 0.0611532
1008.0, 0.0694701
1010.0, 0.0780924
1012.0, 0.0924131
1014.0, 0.110171
1016.0, 0.139152
1018.0, 0.169456
1020.0, 0.194688
1022.0, 0.232683
1024.0, 0.254454
1026.0, 0.261153
1028.0, 0.239091
1030.0, 0.210723
1032.0, 0.172005
1034.0, 0.132712
1036.0, 0.10037
1038.0, 0.0760909
1040.0, 0.058878
1042.0, 0.0505231
1044.0, 0.031679
1046.0, 0.027899
1048.0, 0.0230542
1050.0, 0.0216207
1052.0, 0.00893245
1054.0, 0.0199669
1056.0, 0.00416016
1058.0, 0.00619458
1060.0, 7.99471e-05
1062.0, 0.0128013
1064.0, 0.00321766
1066.0, 0.00176781
1068.0, 0.00135228
1070.0, 0.00201021
1072.0, 0.000238757
1074.0, 0.00386548
1076.0, 0.00547949
1078.0, 0.00129918
1080.0, 0.00229071
1082.0, 0.000987678
1084.0, 0.000528212
1086.0, 0.00458744
1088.0, 0.00518766
1090.0, 0.00673988
1092.0, 0.00630996
1094.0, 0.0133221
1096.0, 0.0104826
1098.0, 0.00900349
1100.0, 0.0104609
1102.0, 0.00681174
1104.0, 0.00555093
1106.0, 0.0118432
1108.0, 0.0045958
1110.0, 0.00103369
1112.0, 0.00828539
1114.0, 0.0143161
1116.0, 0.000273085
1118.0, 0.00847068
1120.0, 0.00763955
1122.0, 0.00213287
1124.0, 0.00554993
1126.0, 0.0123494
1128.0, 0.00840109
1130.0, 0.00466002
1132.0, 0.00619001
1134.0, 0.00790759
1136.0, 0.00736163
1138.0, 0.00234259
1140.0, 0.0043559
1142.0, 0.00124435
1144.0, 0.00407779
1146.0, 0.000724791
1148.0, 0.00524213
1150.0, 0.000807505
1152.0, 0.0100736
1154.0, 0.00104985
1156.0, 0.00996321
1158.0, 0.00691002
1160.0, 0.00395179
1162.0, 0.00588992
1164.0, 0.00539433
1166.0, 0.00990491
1168.0, 0.00522123
1170.0, 0.00628404
1172.0, 0.00147178
1174.0, 0.00127811
1176.0, 0.00886321
1178.0, 0.00547296
1180.0, 0.00455346
1182.0, 0.0072503
1184.0, 0.00289433
1186.0, 0.00701291
1188.0, 0.00226348
1190.0, 0.00994476
1192.0, 0.00935338
1194.0, 0.00948385
1196.0, 0.0052797
1198.0, 0.00576653
1200.0, 0.00288788
1202.0, 0.00356045
1204.0, 0.00887906
1206.0, 0.00752352
1208.0, 1.45567e-05
1210.0, 0.00429283
1212.0, 0.0072933
1214.0, 0.00563954
1216.0, 0.00185764
1218.0, 0.00396886
1220.0, 0.00887637
1222.0, 0.00637317
1224.0, 0.0121219
1226.0, 0.0051576
1228.0, 0.0095251
1230.0, 0.0082532
1232.0, 0.00615176
1234.0, 0.00103361
1236.0, 0.00717912
1238.0, 0.00252039
1240.0, 0.00318268
1242.0, 0.00226726
1244.0, 0.00205151
1246, 0.0
1248, 0.0
1250, 0.0
1252, 0.0
1254, 0.0
1256, 0.0
1258, 0.0
1260, 0.0
1262, 0.0
1264, 0.0
1266, 0.0
1268, 0.0
1270, 0.0
1272, 0.0
1274, 0.0
1276, 0.0
1278, 0.0
1280, 0.0
1282, 0.0
1284, 0.0
1286, 0.0
1288, 0.0
1290, 0.0
1292, 0.0
1294, 0.0
1296, 0.0
1298, 0.0
1300, 0.0
1302, 0.0
1304, 0.0
1306, 0.0
1308, 0.0
1310, 0.0
1312, 0.0
1314, 0.0
1316, 0.0
1318, 0.0
1320, 0.0
1322, 0.0
1324, 0.0
1326, 0.0
1328, 0.0
1330, 0.0
1332, 0.0
1334, 0.0
1336, 0.0
1338, 0.0
1340, 0.0
1342, 0.0
1344, 0.0
1346, 0.0
1348, 0.0
1350, 0.0
1352, 0.0
1354, 0.0
1356, 0.0
1358, 0.0
1360, 0.0
1362, 0.0
1364, 0.0
1366, 0.0
1368, 0.0
1370, 0.0
1372, 0.0
1374, 0.0
1376, 0.0
1378, 0.0
1380, 0.0
1382, 0.0
1384, 0.0
1386, 0.0
1388, 0.0
1390, 0.0
1392, 0.0
1394, 0.0
1396, 0.0
1398, 0.0
1400, 0.0
1402, 0.0
1404, 0.0
1406, 0.0
1408, 0.0
1410, 0.0
1412, 0.0
1414, 0.0
1416, 0.0
1418, 0.0
1420, 0.0
1422, 0.0
1424, 0.0
1426, 0.0
1428, 0.0
1430, 0.0
1432, 0.0
1434, 0.0
1436, 0.0
1438, 0.0
1440, 0.0
1442, 0.0
1444, 0.0
1446, 0.0
1448, 0.0
1450, 0.0
1452, 0.0
1454, 0.0
1456, 0.0
1458, 0.0
1460, 0.0
1462, 0.0
1464, 0.0
1466, 0.0
1468, 0.0
1470, 0.0
1472, 0.0
1474, 0.0
1476, 0.0
1478, 0.0
1480, 0.0
1482, 0.0
1484, 0.0
1486, 0.0
1488, 0.0
1490, 0.0
1492, 0.0
1494, 0.0
1496, 0.0
1498, 0.0
1500, 0.0
1502, 0.0
1504, 0.0
1506, 0.0
1508, 0.0
1510, 0.0
1512, 0.0
1514, 0.0
1516, 0.0
1518, 0.0
1520, 0.0
1522, 0.0
1524, 0.0
1526, 0.0
1528, 0.0
1530, 0.0
1532, 0.0
1534, 0.0
1536, 0.0
1538, 0.0
1540, 0.0
1542, 0.0
1544, 0.0
1546, 0.0
1548, 0.0
1550, 0.0
1552, 0.0
1554, 0.0
1556, 0.0
1558, 0.0
1560, 0.0
1562, 0.0
1564, 0.0
1566, 0.0
1568, 0.0
1570, 0.0
1572, 0.0
1574, 0.0
1576, 0.0
1578, 0.0
1580, 0.0
1582, 0.0
1584, 0.0
1586, 0.0
1588, 0.0
1590, 0.0
1592, 0.0
1594, 0.0
1596, 0.0
1598, 0.0
1599, 0.0