File: raw data/Dataset_2/Protoferroanthophyllite/Protoferroanthophyllite__R060053__Raman__514__0__unoriented__Raman_Data_Processed__7882.txt
30, 0.0
32, 0.0
34, 0.0
36, 0.0
38, 0.0
40, 0.0
42, 0.0
44, 0.0
46, 0.0
48, 0.0
50, 0.0
52, 0.0
54, 0.0
56, 0.0
58, 0.0
60, 0.0
62, 0.0
64, 0.0
66, 0.0
68, 0.0
70, 0.0
72, 0.0
74, 0.0
76, 0.0
78, 0.0
80, 0.0
82, 0.0
84, 0.0
86, 0.0
88.0, 0.000458088
90.0, 0.00300844
92.0, 0.0090718
94.0, 0.00871662
96.0, 0.0112264
98.0, 0.0084573
100.0, 0.00616942
102.0, 0.00160292
104.0, 0.00113236
106.0, 0.00116555
108.0, 0.00135318
110.0, 0.00466077
112.0, 0.0043256
114.0, 0.00989877
116.0, 0.0177622
118.0, 0.0193284
120.0, 0.0167624
122.0, 0.0146329
124.0, 0.0118864
126.0, 0.0109993
128.0, 0.0103954
130.0, 0.0162485
132.0, 0.0243463
134.0, 0.0341417
136.0, 0.0431814
138.0, 0.0530026
140.0, 0.0619578
142.0, 0.075744
144.0, 0.095289
146.0, 0.122929
148.0, 0.151335
150.0, 0.163071
152.0, 0.150982
154.0, 0.120566
156.0, 0.0928561
158.0, 0.0551287
160.0, 0.0477888
162.0, 0.0476604
164.0, 0.0614306
166.0, 0.0865228
168.0, 0.129542
170.0, 0.188715
172.0, 0.259782
174.0, 0.329535
176.0, 0.392938
178.0, 0.421985
180.0, 0.426612
182.0, 0.398168
184.0, 0.361332
186.0, 0.313618
188.0, 0.265284
190.0, 0.227652
192.0, 0.196205
194.0, 0.169289
196.0, 0.153404
198.0, 0.138268
200.0, 0.133814
202.0, 0.130514
204.0, 0.129658
206.0, 0.12663
208.0, 0.122804
210.0, 0.119061
212.0, 0.112815
214.0, 0.110055
216.0, 0.106978
218.0, 0.108511
220.0, 0.104762
222.0, 0.0998606
224.0, 0.0922139
226.0, 0.0843687
228.0, 0.076831
230.0, 0.0682821
232.0, 0.0628516
234.0, 0.0571869
236.0, 0.0515242
238.0, 0.0452487
240.0, 0.0425178
242.0, 0.0367905
244.0, 0.0359714
246.0, 0.0302879
248.0, 0.0310447
250.0, 0.0299092
252.0, 0.0267303
254.0, 0.0238503
256.0, 0.0214575
258.0, 0.0177355
260.0, 0.0160088
262.0, 0.0100266
264.0, 0.00662252
266.0, 0.000493852
268.0, 0.00386345
270.0, 0.00282738
272.0, 0.00401246
274.0, 0.00498807
276.0, 0.00422831
278.0, 0.00313401
280.0, 0.00114181
282.0, 0.00209972
284.0, 0.00245032
286.0, 0.00259133
288.0, 0.00260815
290.0, 0.00464588
292.0, 0.00542408
294.0, 0.00711814
296.0, 0.00737418
298.0, 0.00896756
300.0, 0.0131038
302.0, 0.0148828
304.0, 0.019284
306.0, 0.0218647
308.0, 0.0271322
310.0, 0.0277021
312.0, 0.0318185
314.0, 0.0322054
316.0, 0.0306138
318.0, 0.0290338
320.0, 0.0244942
322.0, 0.0244194
324.0, 0.0198658
326.0, 0.0208574
328.0, 0.0232307
330.0, 0.0264218
332.0, 0.0312581
334.0, 0.0392569
336.0, 0.0472745
338.0, 0.0588254
340.0, 0.0683862
342.0, 0.0699419
344.0, 0.0706257
346.0, 0.0681111
348.0, 0.064936
350.0, 0.0615409
352.0, 0.0576486
354.0, 0.0580642
356.0, 0.0614646
358.0, 0.0669839
360.0, 0.0772827
362.0, 0.0930739
364.0, 0.121413
366.0, 0.153977
368.0, 0.196854
370.0, 0.243107
372.0, 0.276587
374.0, 0.29148
376.0, 0.287988
378.0, 0.27527
380.0, 0.24545
382.0, 0.214675
384.0, 0.180177
386.0, 0.144192
388.0, 0.115602
390.0, 0.0994512
392.0, 0.0839999
394.0, 0.0788578
396.0, 0.0708003
398.0, 0.0638267
400.0, 0.0583421
402.0, 0.054038
404.0, 0.0467724
406.0, 0.0385348
408.0, 0.0321118
410.0, 0.0283258
412.0, 0.024253
414.0, 0.0227394
416.0, 0.0227922
418.0, 0.0209676
420.0, 0.016325
422.0, 0.0145126
424.0, 0.00994756
426.0, 0.00653193
428.0, 0.00585985
430.0, 0.00516157
432.0, 0.00551288
434.0, 0.00345557
436.0, 0.000965426
438.0, 0.00134587
440.0, 0.00206211
442.0, 0.00150933
444.0, 0.00215578
446.0, 0.000572663
448.0, 0.00114722
450.0, 0.000739285
452.0, 0.000986112
454.0, 0.00204683
456.0, 0.00335238
458.0, 0.00531423
460.0, 0.00695088
462.0, 0.0101173
464.0, 0.0120317
466.0, 0.0106153
468.0, 0.00969256
470.0, 0.00995819
472.0, 0.00812781
474.0, 0.00619469
476.0, 0.00609652
478.0, 0.00530547
480.0, 0.00665044
482.0, 0.00693748
484.0, 0.00687394
486.0, 0.00691449
488.0, 0.00899256
490.0, 0.012706
492.0, 0.0155193
494.0, 0.0187485
496.0, 0.0211839
498.0, 0.0237314
500.0, 0.0294397
502.0, 0.0376314
504.0, 0.0489027
506.0, 0.058662
508.0, 0.0707149
510.0, 0.0854325
512.0, 0.105875
514.0, 0.125641
516.0, 0.148322
518.0, 0.161025
520.0, 0.172846
522.0, 0.162758
524.0, 0.145515
526.0, 0.117476
528.0, 0.091382
530.0, 0.0710492
532.0, 0.0547849
534.0, 0.0417288
536.0, 0.0319974
538.0, 0.0250539
540.0, 0.0213944
542.0, 0.0187
544.0, 0.0153572
546.0, 0.0130563
548.0, 0.0115472
550.0, 0.00770284
552.0, 0.00970897
554.0, 0.00721362
556.0, 0.00698404
558.0, 0.0068027
560.0, 0.00699108
562.0, 0.00488228
564.0, 0.00535093
566.0, 0.00406141
568.0, 0.00339941
570.0, 0.0018718
572.0, 0.00162059
574.0, 0.0017854
576.0, 0.000616678
578.0, 0.000704783
580.0, 0.000473226
582.0, 0.00132259
584.0, 0.000900957
586.0, 0.00215535
588.0, 0.000365082
590.0, 0.00145156
592.0, 0.000747005
594.0, 0.00121285
596.0, 0.000732808
598.0, 0.00059396
600.0, 0.000832921
602.0, 0.000675457
604.0, 0.00219608
606.0, 0.00318239
608.0, 0.00453605
610.0, 0.00454658
612.0, 0.00449273
614.0, 0.00569709
616.0, 0.00981134
618.0, 0.0103701
620.0, 0.0141458
622.0, 0.017795
624.0, 0.0213541
626.0, 0.0265416
628.0, 0.03009
630.0, 0.0377288
632.0, 0.041004
634.0, 0.0468665
636.0, 0.0524367
638.0, 0.0581234
640.0, 0.067722
642.0, 0.0762821
644.0, 0.0975374
646.0, 0.123715
648.0, 0.161154
650.0, 0.218612
652.0, 0.292993
654.0, 0.401922
656.0, 0.558679
658.0, 0.742455
660.0, 0.912024
662.0, 0.996648
664.0, 0.926213
666.0, 0.761513
668.0, 0.557816
670.0, 0.406046
672.0, 0.292253
674.0, 0.220646
676.0, 0.169707
678.0, 0.136165
680.0, 0.110703
682.0, 0.0950174
684.0, 0.0837512
686.0, 0.0774215
688.0, 0.0684078
690.0, 0.0642213
692.0, 0.0574054
694.0, 0.0502903
696.0, 0.0445794
698.0, 0.0392848
700.0, 0.0355877
702.0, 0.031805
704.0, 0.0285367
706.0, 0.0266712
708.0, 0.0242223
710.0, 0.0217125
712.0, 0.0213289
714.0, 0.0183854
716.0, 0.0187788
718.0, 0.0191689
720.0, 0.0187286
722.0, 0.0186571
724.0, 0.0199579
726.0, 0.0188942
728.0, 0.0210089
730.0, 0.0207996
732.0, 0.0245305
734.0, 0.0299641
736.0, 0.0353472
738.0, 0.0453337
740.0, 0.0534529
742.0, 0.0530849
744.0, 0.0500493
746.0, 0.0407441
748.0, 0.0371388
750.0, 0.0353295
752.0, 0.0309299
754.0, 0.0293077
756.0, 0.0218758
758.0, 0.0167124
760.0, 0.0129584
762.0, 0.0112855
764.0, 0.01054
766.0, 0.0106497
768.0, 0.0108002
770.0, 0.0113145
772.0, 0.0116979
774.0, 0.0109546
776.0, 0.00928435
778.0, 0.00901003
780.0, 0.00755545
782.0, 0.00469456
784.0, 0.00610847
786.0, 0.00386057
788.0, 0.000660337
790.0, 0.00260909
792.0, 0.00052686
794.0, 0.000571671
796.0, 0.000767879
798.0, 0.00164368
800.0, 0.000653132
802.0, 0.000896667
804.0, 0.00169575
806.0, 0.00199603
808.0, 0.00177036
810.0, 0.0029376
812.0, 0.000719744
814.0, 0.000703446
816.0, 0.00129185
818.0, 0.00020853
820.0, 0.00126325
822.0, 0.000324634
824.0, 0.000206227
826.0, 0.00120047
828.0, 0.00144515
830.0, 0.000525572
832.0, 0.000464603
834.0, 0.000502643
836.0, 0.00065089
838.0, 0.00101429
840.0, 0.00121089
842.0, 0.00154984
844.0, 0.00186323
846.0, 0.000435196
848.0, 0.00106233
850.0, 0.00112445
852.0, 0.00146441
854.0, 0.00365735
856.0, 0.00142237
858.0, 0.00218815
860.0, 0.00199753
862.0, 0.00190089
864.0, 0.000716179
866.0, 0.000887622
868.0, 0.00305369
870.0, 0.00301778
872.0, 0.00189311
874.0, 0.00363348
876.0, 0.00423553
878.0, 0.0028063
880.0, 0.00592224
882.0, 0.00669795
884.0, 0.00958547
886.0, 0.0118083
888.0, 0.0142064
890.0, 0.017321
892.0, 0.020132
894.0, 0.0225072
896.0, 0.0276903
898.0, 0.0314891
900.0, 0.0360446
902.0, 0.0439029
904.0, 0.0494965
906.0, 0.0574058
908.0, 0.0680018
910.0, 0.0783355
912.0, 0.087225
914.0, 0.0954794
916.0, 0.0944286
918.0, 0.0916611
920.0, 0.0824039
922.0, 0.07457
924.0, 0.0652244
926.0, 0.0564307
928.0, 0.0510378
930.0, 0.04593
932.0, 0.0429228
934.0, 0.0390933
936.0, 0.0375652
938.0, 0.0342156
940.0, 0.0329626
942.0, 0.0360247
944.0, 0.0332533
946.0, 0.0338862
948.0, 0.0349453
950.0, 0.0349955
952.0, 0.0371611
954.0, 0.0376199
956.0, 0.0389654
958.0, 0.0423421
960.0, 0.0453389
962.0, 0.0543416
964.0, 0.0652507
966.0, 0.0725354
968.0, 0.0867439
970.0, 0.100297
972.0, 0.117477
974.0, 0.122847
976.0, 0.124161
978.0, 0.116936
980.0, 0.108621
982.0, 0.10823
984.0, 0.1018
986.0, 0.108419
988.0, 0.112942
990.0, 0.123385
992.0, 0.137822
994.0, 0.154501
996.0, 0.173679
998.0, 0.185998
1000.0, 0.185855
1002.0, 0.178329
1004.0, 0.168819
1006.0, 0.153268
1008.0, 0.138545
1010.0, 0.137806
1012.0, 0.142206
1014.0, 0.153073
1016.0, 0.171496
1018.0, 0.203475
1020.0, 0.248797
1022.0, 0.312206
1024.0, 0.386975
1026.0, 0.44881
1028.0, 0.504978
1030.0, 0.50562
1032.0, 0.432954
1034.0, 0.366757
1036.0, 0.290728
1038.0, 0.229491
1040.0, 0.184669
1042.0, 0.150529
1044.0, 0.123414
1046.0, 0.106898
1048.0, 0.09063
1050.0, 0.0792583
1052.0, 0.0711848
1054.0, 0.0653616
1056.0, 0.0589514
1058.0, 0.0514504
1060.0, 0.0480226
1062.0, 0.0437039
1064.0, 0.0405072
1066.0, 0.0372467
1068.0, 0.0346292
1070.0, 0.0332789
1072.0, 0.0319315
1074.0, 0.0281506
1076.0, 0.0303985
1078.0, 0.0266478
1080.0, 0.0298133
1082.0, 0.0337386
1084.0, 0.0367163
1086.0, 0.0390017
1088.0, 0.0353013
1090.0, 0.0306232
1092.0, 0.0308563
1094.0, 0.0318607
1096.0, 0.0333818
1098.0, 0.0346127
1100.0, 0.0387943
1102.0, 0.0396527
1104.0, 0.0323226
1106.0, 0.0290769
1108.0, 0.0216117
1110.0, 0.0199856
1112.0, 0.0190436
1114.0, 0.0171844
1116.0, 0.0145661
1118.0, 0.0160104
1120.0, 0.015601
1122.0, 0.0248949
1124.0, 0.0315965
1126.0, 0.0204669
1128.0, 0.0140556
1130.0, 0.00907972
1132.0, 0.00881597
1134.0, 0.00710924
1136.0, 0.00657449
1138.0, 0.00577559
1140.0, 0.00606437
1142.0, 0.00484065
1144.0, 0.00359176
1146.0, 0.00482668
1148.0, 0.00382108
1150.0, 0.00329341
1152.0, 0.00172182
1154.0, 0.00250744
1156.0, 0.00227112
1158.0, 0.00256385
1160.0, 0.0020935
1162.0, 0.00106041
1164.0, 0.00227527
1166.0, 0.00195391
1168.0, 0.00162945
1170.0, 0.000154509
1172.0, 0.00200703
1174.0, 0.00165734
1176.0, 0.00171225
1178.0, 0.000980813
1180.0, 0.00120872
1182.0, 0.000854921
1184.0, 0.00191767
1186.0, 0.00176189
1188.0, 0.0019516
1190.0, 0.000133895
1192.0, 0.000572292
1194.0, 0.000647653
1196.0, 0.00124905
1198.0, 0.00117236
1200.0, 0.000983979
1202.0, 0.00178666
1204.0, 0.00178099
1206.0, 0.000866815
1208.0, 0.00120412
1210.0, 0.00116304
1212.0, 0.00307154
1214.0, 0.00137306
1216.0, 0.00102376
1218.0, 0.000402472
1220.0, 0.00144668
1222.0, 0.00243673
1224.0, 0.00285916
1226.0, 0.000785845
1228.0, 0.00428087
1230.0, 0.00158508
1232.0, 0.00266376
1234.0, 0.00319644
1236.0, 0.0013749
1238.0, 0.00214868
1240.0, 0.0025831
1242.0, 0.00373841
1244.0, 0.00306863
1246.0, 0.00507485
1248.0, 0.00238473
1250.0, 0.00325671
1252.0, 0.00441339
1254.0, 0.00248898
1256.0, 0.00512252
1258.0, 0.0046697
1260.0, 0.005031
1262.0, 0.0070491
1264.0, 0.00448672
1266.0, 0.0045791
1268.0, 0.00435421
1270.0, 0.00378828
1272.0, 0.00365927
1274.0, 0.00359282
1276.0, 0.00107815
1278.0, 0.004259
1280.0, 0.000970781
1282.0, 0.00491554
1284.0, 0.00113762
1286.0, 0.00177672
1288.0, 0.00375717
1290.0, 0.00482356
1292.0, 0.00482521
1294.0, 0.00331501
1296.0, 0.00241041
1298.0, 0.00148832
1300.0, 0.00440542
1302.0, 0.00378882
1304.0, 0.00668682
1306.0, 0.00173262
1308.0, 0.00578802
1310.0, 0.00134431
1312.0, 0.00145074
1314.0, 0.00409675
1316.0, 0.00283202
1318.0, 0.00348368
1320.0, 0.00278222
1322.0, 0.00220678
1324.0, 0.00259284
1326.0, 0.000750962
1328.0, 0.00374572
1330.0, 0.00323318
1332.0, 0.00347073
1334.0, 0.00314878
1336.0, 0.00296143
1338.0, 0.00186891
1340.0, 0.00414262
1342.0, 0.000770913
1344.0, 0.00304381
1346.0, 0.00316969
1348.0, 0.00204463
1350.0, 0.00358974
1352.0, 0.000328613
1354.0, 0.00313903
1356.0, 0.00106151
1358.0, 0.00290849
1360.0, 0.00420204
1362.0, 0.00459203
1364.0, 0.00459975
1366.0, 0.00212739
1368.0, 0.000324764
1370.0, 0.000462207
1372.0, 0.0025163
1374.0, 0.00104225
1376.0, 0.00169616
1378.0, 0.00161409
1380.0, 0.00232369
1382.0, 0.00295424
1384.0, 0.00336658
1386.0, 0.00443549
1388.0, 0.00271265
1390.0, 0.00307103
1392.0, 0.0043527
1394.0, 0.00188266
1396.0, 0.00391493
1398.0, 0.00122328
1400.0, 0.00278052
1402.0, 0.00344034
1404.0, 0.00317814
1406.0, 0.00239011
1408.0, 0.00112176
1410.0, 0.000590212
1412.0, 0.00465454
1414.0, 0.000640143
1416.0, 0.00304978
1418.0, 0.0037018
1420.0, 0.00108106
1422.0, 0.00259914
1424.0, 0.000449394
1426.0, 0.00110464
1428.0, 0.00235595
1430.0, 0.000980691
1432.0, 0.00386825
1434.0, 0.004344
1436.0, 0.00113782
1438.0, 0.0059815
1440.0, 0.00150713
1442.0, 0.00581977
1444.0, 0.00277644
1446.0, 0.00348343
1448.0, 0.00394692
1450.0, 0.00585842
1452.0, 0.00372646
1454.0, 0.00335209
1456.0, 0.00294712
1458.0, 0.00287086
1460.0, 0.00180003
1462.0, 0.0037233
1464.0, 0.00495337
1466.0, 0.00428346
1468.0, 0.00393313
1470.0, 0.00476712
1472.0, 0.00540525
1474.0, 0.00461728
1476.0, 0.00207467
1478.0, 0.00344485
1480.0, 0.00434894
1482.0, 0.00352758
1484.0, 0.00140504
1486.0, 0.00204887
1488.0, 0.00308472
1490.0, 0.00292563
1492.0, 0.00104835
1494.0, 0.00600463
1496.0, 0.0019976
1498.0, 0.0027873
1500.0, 0.00224967
1502.0, 0.00446251
1504.0, 0.00361722
1506.0, 0.00323029
1508.0, 0.00424307
1510.0, 0.00396743
1512.0, 0.00120406
1514.0, 0.00594993
1516.0, 0.00316926
1518.0, 0.00147773
1520, 0.0
1522, 0.0
1524, 0.0
1526, 0.0
1528, 0.0
1530, 0.0
1532, 0.0
1534, 0.0
1536, 0.0
1538, 0.0
1540, 0.0
1542, 0.0
1544, 0.0
1546, 0.0
1548, 0.0
1550, 0.0
1552, 0.0
1554, 0.0
1556, 0.0
1558, 0.0
1560, 0.0
1562, 0.0
1564, 0.0
1566, 0.0
1568, 0.0
1570, 0.0
1572, 0.0
1574, 0.0
1576, 0.0
1578, 0.0
1580, 0.0
1582, 0.0
1584, 0.0
1586, 0.0
1588, 0.0
1590, 0.0
1592, 0.0
1594, 0.0
1596, 0.0
1598, 0.0
1599, 0.0