File: raw data/Dataset_2/Cubiczirconia/Cubiczirconia__R040142-3__Raman__514__0__ccw__Raman_Data_Processed__2844.txt
30, 0.0
32, 0.0
34, 0.0
36, 0.0
38, 0.0
40, 0.0
42, 0.0
44, 0.0
46, 0.0
48, 0.0
50, 0.0
52, 0.0
54, 0.0
56, 0.0
58, 0.0
60, 0.0
62, 0.0
64, 0.0
66, 0.0
68, 0.0
70, 0.0
72, 0.0
74, 0.0
76, 0.0
78, 0.0
80, 0.0
82, 0.0
84, 0.0
86, 0.0
88, 0.0
90, 0.0
92, 0.0
94, 0.0
96, 0.0
98, 0.0
100, 0.0
102, 0.0
104, 0.0
106, 0.0
108, 0.0
110, 0.0
112, 0.0
114, 0.0
116, 0.0
118, 0.0
120, 0.0
122, 0.0
124, 0.0
126, 0.0
128, 0.0
130, 0.0
132, 0.0
134, 0.0
136, 0.0
138, 0.0
140, 0.0
142, 0.0
144, 0.0
146, 0.0
148, 0.0
150, 0.0
152, 0.0
154, 0.0
156, 0.0
158, 0.0
160, 0.0
162, 0.0
164, 0.0
166, 0.0
168, 0.0
170, 0.0
172, 0.0
174, 0.0
176, 0.0
178, 0.0
180, 0.0
182, 0.0
184, 0.0
186, 0.0
188, 0.0
190, 0.0
192, 0.0
194, 0.0
196, 0.0
198, 0.0
200, 0.0
202, 0.0
204, 0.0
206, 0.0
208, 0.0
210, 0.0
212, 0.0
214, 0.0
216, 0.0
218, 0.0
220, 0.0
222, 0.0
224, 0.0
226, 0.0
228, 0.0
230, 0.0
232, 0.0
234, 0.0
236, 0.0
238, 0.0
240, 0.0
242, 0.0
244, 0.0
246, 0.0
248, 0.0
250, 0.0
252, 0.0
254, 0.0
256, 0.0
258, 0.0
260, 0.0
262, 0.0
264, 0.0
266, 0.0
268, 0.0
270, 0.0
272, 0.0
274, 0.0
276, 0.0
278, 0.0
280, 0.0
282, 0.0
284, 0.0
286, 0.0
288, 0.0
290, 0.0
292, 0.0
294, 0.0
296, 0.0
298, 0.0
300, 0.0
302, 0.0
304, 0.0
306, 0.0
308, 0.0
310, 0.0
312, 0.0
314, 0.0
316, 0.0
318, 0.0
320, 0.0
322, 0.0
324, 0.0
326, 0.0
328, 0.0
330.0, 0.000314423
332.0, 0.0152171
334.0, 0.0119146
336.0, 0.0137581
338.0, 0.0307053
340.0, 0.0438097
342.0, 0.0410158
344.0, 0.0604178
346.0, 0.0833738
348.0, 0.0841795
350.0, 0.100156
352.0, 0.101454
354.0, 0.0883684
356.0, 0.0703796
358.0, 0.0605759
360.0, 0.0541196
362.0, 0.0452469
364.0, 0.0477963
366.0, 0.0716894
368.0, 0.0775269
370.0, 0.0972676
372.0, 0.113256
374.0, 0.101875
376.0, 0.124114
378.0, 0.140582
380.0, 0.129197
382.0, 0.13966
384.0, 0.138515
386.0, 0.133173
388.0, 0.141666
390.0, 0.153347
392.0, 0.168135
394.0, 0.181055
396.0, 0.16184
398.0, 0.177195
400.0, 0.153833
402.0, 0.134642
404.0, 0.144832
406.0, 0.123649
408.0, 0.125474
410.0, 0.114689
412.0, 0.115785
414.0, 0.112725
416.0, 0.104346
418.0, 0.0947026
420.0, 0.0956141
422.0, 0.0877441
424.0, 0.0746782
426.0, 0.0775162
428.0, 0.0640566
430.0, 0.0517244
432.0, 0.0386475
434.0, 0.0436763
436.0, 0.0354225
438.0, 0.0230563
440.0, 0.0235439
442.0, 0.0114793
444.0, 0.0136197
446.0, 0.00891569
448.0, 0.00274915
450.0, 0.00305465
452.0, 0.0114552
454.0, 0.00901046
456.0, 0.00873196
458.0, 0.0136478
460.0, 0.00722879
462.0, 0.0107075
464.0, 0.00778216
466.0, 0.00641535
468.0, 0.00617744
470.0, 0.00219999
472.0, 0.00893831
474.0, 0.00339079
476.0, 0.00811154
478.0, 0.0145008
480.0, 0.0126952
482.0, 0.014201
484.0, 0.0146238
486.0, 0.0278074
488.0, 0.00858033
490.0, 0.0164356
492.0, 0.0277124
494.0, 0.0280093
496.0, 0.0448165
498.0, 0.0406457
500.0, 0.0442751
502.0, 0.0449977
504.0, 0.0543069
506.0, 0.0522794
508.0, 0.0636877
510.0, 0.0646806
512.0, 0.0857873
514.0, 0.0877895
516.0, 0.0831342
518.0, 0.0982614
520.0, 0.0811703
522.0, 0.105763
524.0, 0.101112
526.0, 0.109398
528.0, 0.128778
530.0, 0.124542
532.0, 0.139062
534.0, 0.153152
536.0, 0.153429
538.0, 0.165247
540.0, 0.172084
542.0, 0.16414
544.0, 0.214881
546.0, 0.20242
548.0, 0.202727
550.0, 0.219785
552.0, 0.217356
554.0, 0.231124
556.0, 0.241205
558.0, 0.249803
560.0, 0.254885
562.0, 0.320891
564.0, 0.292847
566.0, 0.293324
568.0, 0.301885
570.0, 0.330568
572.0, 0.344754
574.0, 0.348045
576.0, 0.36308
578.0, 0.355585
580.0, 0.387515
582.0, 0.395209
584.0, 0.407
586.0, 0.430607
588.0, 0.447428
590.0, 0.471234
592.0, 0.487243
594.0, 0.495817
596.0, 0.528823
598.0, 0.522293
600.0, 0.545745
602.0, 0.580894
604.0, 0.593631
606.0, 0.615346
608.0, 0.631301
610.0, 0.642802
612.0, 0.663629
614.0, 0.683265
616.0, 0.69866
618.0, 0.702813
620.0, 0.70333
622.0, 0.704272
624.0, 0.686213
626.0, 0.692333
628.0, 0.673837
630.0, 0.635329
632.0, 0.627386
634.0, 0.5811
636.0, 0.545975
638.0, 0.504224
640.0, 0.450661
642.0, 0.41859
644.0, 0.383074
646.0, 0.34558
648.0, 0.321501
650.0, 0.308452
652.0, 0.28233
654.0, 0.27802
656.0, 0.25772
658.0, 0.260476
660.0, 0.245569
662.0, 0.244328
664.0, 0.24047
666.0, 0.237836
668.0, 0.2447
670.0, 0.242042
672.0, 0.242221
674.0, 0.244473
676.0, 0.234663
678.0, 0.246415
680.0, 0.248904
682.0, 0.247374
684.0, 0.252547
686.0, 0.24851
688.0, 0.253211
690.0, 0.243553
692.0, 0.251191
694.0, 0.244572
696.0, 0.242711
698.0, 0.239615
700.0, 0.232578
702.0, 0.242238
704.0, 0.22243
706.0, 0.220202
708.0, 0.21477
710.0, 0.219642
712.0, 0.203732
714.0, 0.188534
716.0, 0.191771
718.0, 0.176292
720.0, 0.179624
722.0, 0.160516
724.0, 0.149786
726.0, 0.149047
728.0, 0.123005
730.0, 0.130992
732.0, 0.127458
734.0, 0.105131
736.0, 0.112162
738.0, 0.0973383
740.0, 0.0882654
742.0, 0.0808773
744.0, 0.083392
746.0, 0.0809304
748.0, 0.0706104
750.0, 0.0591391
752.0, 0.0578588
754.0, 0.0506574
756.0, 0.0490465
758.0, 0.0409486
760.0, 0.0323421
762.0, 0.0355515
764.0, 0.0308206
766.0, 0.0253081
768.0, 0.0157962
770.0, 0.0120917
772.0, 0.0220329
774.0, 0.00894629
776.0, 0.00450789
778.0, 0.00864109
780.0, 0.00268794
782.0, 0.00305074
784.0, 0.0217042
786.0, 0.00421664
788.0, 0.00627959
790.0, 0.0144088
792.0, 0.00562167
794.0, 0.0111037
796.0, 0.0171724
798.0, 0.00711589
800.0, 0.014266
802.0, 0.0208958
804.0, 0.0110491
806.0, 0.0122229
808.0, 0.00956535
810.0, 0.0107364
812.0, 0.0206838
814.0, 0.00803371
816.0, 0.0095406
818.0, 0.0130505
820.0, 0.00560011
822.0, 0.0159187
824.0, 0.00258337
826.0, 0.00703647
828.0, 0.00305346
830.0, 0.00545203
832.0, 0.0150575
834.0, 0.0086039
836.0, 0.0031627
838.0, 0.00997435
840.0, 0.01109
842.0, 0.000363375
844.0, 0.00346749
846.0, 0.0130583
848.0, 0.00589607
850.0, 0.0210531
852.0, 0.00989665
854.0, 0.00824168
856.0, 0.0118515
858.0, 0.00909458
860.0, 0.0131844
862.0, 0.00956905
864.0, 0.00280056
866.0, 0.0132743
868.0, 0.00909337
870.0, 0.00500364
872.0, 0.0133341
874.0, 0.00896176
876.0, 0.0111942
878.0, 0.00968581
880.0, 0.00821575
882.0, 0.023448
884.0, 0.00909625
886.0, 0.0219378
888.0, 0.01964
890.0, 0.0221537
892.0, 0.0299522
894.0, 0.0259689
896.0, 0.021801
898.0, 0.0371635
900.0, 0.0373015
902.0, 0.0443588
904.0, 0.0404254
906.0, 0.0548629
908.0, 0.0653182
910.0, 0.0506334
912.0, 0.0637119
914.0, 0.0667841
916.0, 0.0710458
918.0, 0.0832779
920.0, 0.073483
922.0, 0.0891032
924.0, 0.112648
926.0, 0.0998674
928.0, 0.132466
930.0, 0.152733
932.0, 0.166428
934.0, 0.210563
936.0, 0.236298
938.0, 0.295319
940.0, 0.366828
942.0, 0.428862
944.0, 0.538045
946.0, 0.606517
948.0, 0.693023
950.0, 0.798688
952.0, 0.828786
954.0, 0.925749
956.0, 0.909615
958.0, 0.920669
960.0, 0.913827
962.0, 0.850449
964.0, 0.771001
966.0, 0.696285
968.0, 0.597251
970.0, 0.528273
972.0, 0.42781
974.0, 0.370949
976.0, 0.302837
978.0, 0.23869
980.0, 0.212848
982.0, 0.187808
984.0, 0.17523
986.0, 0.19065
988.0, 0.195567
990.0, 0.231701
992.0, 0.274824
994.0, 0.318003
996.0, 0.385281
998.0, 0.431743
1000.0, 0.495936
1002.0, 0.573886
1004.0, 0.624819
1006.0, 0.706991
1008.0, 0.753066
1010.0, 0.811148
1012.0, 0.870023
1014.0, 0.897304
1016.0, 0.97043
1018.0, 0.99377
1020.0, 0.983451
1022.0, 0.967418
1024.0, 0.938246
1026.0, 0.9143
1028.0, 0.892199
1030.0, 0.851283
1032.0, 0.833337
1034.0, 0.810813
1036.0, 0.792871
1038.0, 0.775792
1040.0, 0.718448
1042.0, 0.69513
1044.0, 0.655857
1046.0, 0.630785
1048.0, 0.62818
1050.0, 0.59593
1052.0, 0.628222
1054.0, 0.662206
1056.0, 0.660651
1058.0, 0.725364
1060.0, 0.734624
1062.0, 0.763127
1064.0, 0.811106
1066.0, 0.798742
1068.0, 0.835768
1070.0, 0.841409
1072.0, 0.851983
1074.0, 0.8794
1076.0, 0.859124
1078.0, 0.878542
1080.0, 0.871489
1082.0, 0.868806
1084.0, 0.89327
1086.0, 0.855325
1088.0, 0.871346
1090.0, 0.85811
1092.0, 0.83929
1094.0, 0.817075
1096.0, 0.806059
1098.0, 0.793302
1100.0, 0.773091
1102.0, 0.733787
1104.0, 0.725969
1106.0, 0.698587
1108.0, 0.657748
1110.0, 0.664835
1112.0, 0.616165
1114.0, 0.581461
1116.0, 0.561096
1118.0, 0.535241
1120.0, 0.506205
1122.0, 0.493767
1124.0, 0.460687
1126.0, 0.425758
1128.0, 0.387729
1130.0, 0.35921
1132.0, 0.351417
1134.0, 0.316511
1136.0, 0.30904
1138.0, 0.290935
1140.0, 0.273248
1142.0, 0.264037
1144.0, 0.247307
1146.0, 0.255735
1148.0, 0.243005
1150.0, 0.232294
1152.0, 0.224707
1154.0, 0.224906
1156.0, 0.230772
1158.0, 0.205931
1160.0, 0.209539
1162.0, 0.216728
1164.0, 0.209768
1166.0, 0.215249
1168.0, 0.215965
1170.0, 0.207001
1172.0, 0.227931
1174.0, 0.21145
1176.0, 0.226128
1178.0, 0.228961
1180.0, 0.217601
1182.0, 0.230642
1184.0, 0.225427
1186.0, 0.230404
1188.0, 0.236556
1190.0, 0.24181
1192.0, 0.247212
1194.0, 0.236718
1196.0, 0.231759
1198.0, 0.243931
1200.0, 0.234201
1202.0, 0.23375
1204.0, 0.238012
1206.0, 0.231874
1208.0, 0.224552
1210.0, 0.218216
1212.0, 0.220264
1214.0, 0.210081
1216.0, 0.198952
1218.0, 0.210239
1220.0, 0.19048
1222.0, 0.183769
1224.0, 0.185444
1226.0, 0.159373
1228.0, 0.169123
1230.0, 0.150696
1232.0, 0.136435
1234.0, 0.135929
1236.0, 0.117233
1238.0, 0.110842
1240.0, 0.106063
1242.0, 0.0891264
1244.0, 0.086599
1246.0, 0.0628629
1248.0, 0.066774
1250.0, 0.0654994
1252.0, 0.0376905
1254.0, 0.0442483
1256.0, 0.042233
1258.0, 0.0289424
1260.0, 0.0314493
1262.0, 0.0112454
1264.0, 0.025913
1266.0, 0.0166322
1268.0, 0.0036047
1270.0, 0.00470351
1272.0, 0.00701499
1274.0, 0.000856425
1276.0, 0.0070911
1278.0, 0.00605159
1280.0, 0.00167585
1282.0, 0.00590812
1284.0, 0.00878815
1286.0, 0.00399293
1288.0, 0.0200228
1290.0, 0.00909507
1292.0, 0.00174291
1294.0, 0.0137925
1296.0, 0.00613175
1298.0, 0.0228945
1300.0, 0.0116869
1302.0, 0.0142136
1304.0, 0.0195843
1306.0, 0.0135484
1308.0, 0.0120118
1310.0, 0.00820424
1312.0, 0.00683404
1314.0, 0.0164271
1316.0, 0.00395778
1318.0, 0.0157171
1320.0, 0.019948
1322.0, 0.00426134
1324.0, 0.00967767
1326.0, 0.00735967
1328.0, 0.010642
1330.0, 0.0100409
1332.0, 0.00701373
1334.0, 0.00683231
1336.0, 0.00471584
1338.0, 0.00326495
1340.0, 0.00753972
1342.0, 0.0202967
1344.0, 0.0090637
1346.0, 0.00525561
1348.0, 0.0143851
1350.0, 0.00668294
1352.0, 0.0198234
1354.0, 0.0144639
1356.0, 0.0190197
1358.0, 0.0312607
1360.0, 0.0182565
1362.0, 0.0260324
1364.0, 0.0205834
1366.0, 0.0203251
1368.0, 0.0393708
1370.0, 0.0167379
1372.0, 0.0294619
1374.0, 0.0413107
1376.0, 0.0267756
1378.0, 0.0412064
1380.0, 0.0270672
1382.0, 0.0297739
1384.0, 0.0351937
1386.0, 0.0296268
1388.0, 0.0392557
1390.0, 0.0320073
1392.0, 0.032905
1394.0, 0.0443047
1396.0, 0.0322231
1398.0, 0.0464091
1400.0, 0.052703
1402.0, 0.0456927
1404.0, 0.0615457
1406.0, 0.0537674
1408.0, 0.0624734
1410.0, 0.0647349
1412.0, 0.0450506
1414.0, 0.0785271
1416.0, 0.059359
1418.0, 0.0671458
1420.0, 0.0766775
1422.0, 0.0608482
1424.0, 0.0660442
1426.0, 0.0650016
1428.0, 0.0508268
1430.0, 0.0718673
1432.0, 0.0416002
1434.0, 0.0656206
1436.0, 0.0560028
1438.0, 0.0513139
1440.0, 0.0667571
1442.0, 0.0573674
1444.0, 0.0703322
1446.0, 0.0781653
1448.0, 0.0540408
1450.0, 0.0827678
1452.0, 0.0732739
1454.0, 0.0727802
1456.0, 0.101139
1458.0, 0.0720326
1460.0, 0.0799727
1462.0, 0.0760366
1464.0, 0.0759793
1466.0, 0.0877909
1468.0, 0.0680754
1470.0, 0.0787407
1472.0, 0.086873
1474.0, 0.0743792
1476.0, 0.102473
1478.0, 0.0740809
1480.0, 0.0706425
1482.0, 0.0819678
1484.0, 0.0701515
1486.0, 0.0726877
1488.0, 0.0581749
1490.0, 0.0517198
1492.0, 0.0663959
1494.0, 0.0428582
1496.0, 0.055864
1498.0, 0.0591347
1500.0, 0.0425339
1502.0, 0.0560162
1504.0, 0.0391542
1506.0, 0.0398185
1508.0, 0.053001
1510.0, 0.0310848
1512.0, 0.0395762
1514.0, 0.0266913
1516.0, 0.023828
1518.0, 0.0359892
1520.0, 0.00726015
1522.0, 0.0430251
1524.0, 0.0311843
1526.0, 0.0163606
1528.0, 0.0374621
1530.0, 0.0156222
1532.0, 0.0154253
1534, 0.0
1536, 0.0
1538, 0.0
1540, 0.0
1542, 0.0
1544, 0.0
1546, 0.0
1548, 0.0
1550, 0.0
1552, 0.0
1554, 0.0
1556, 0.0
1558, 0.0
1560, 0.0
1562, 0.0
1564, 0.0
1566, 0.0
1568, 0.0
1570, 0.0
1572, 0.0
1574, 0.0
1576, 0.0
1578, 0.0
1580, 0.0
1582, 0.0
1584, 0.0
1586, 0.0
1588, 0.0
1590, 0.0
1592, 0.0
1594, 0.0
1596, 0.0
1598, 0.0
1599, 0.0