File: raw data/Dataset_2/Cubiczirconia/Cubiczirconia__R040142-3__Raman__514__45__ccw__Raman_Data_Processed__2846.txt
30, 0.0
32, 0.0
34, 0.0
36, 0.0
38, 0.0
40, 0.0
42, 0.0
44, 0.0
46, 0.0
48, 0.0
50, 0.0
52, 0.0
54, 0.0
56, 0.0
58, 0.0
60, 0.0
62, 0.0
64, 0.0
66, 0.0
68, 0.0
70, 0.0
72, 0.0
74, 0.0
76, 0.0
78, 0.0
80, 0.0
82, 0.0
84, 0.0
86, 0.0
88, 0.0
90, 0.0
92, 0.0
94, 0.0
96, 0.0
98, 0.0
100, 0.0
102, 0.0
104, 0.0
106, 0.0
108, 0.0
110, 0.0
112, 0.0
114, 0.0
116, 0.0
118, 0.0
120, 0.0
122, 0.0
124, 0.0
126, 0.0
128, 0.0
130, 0.0
132, 0.0
134, 0.0
136, 0.0
138, 0.0
140, 0.0
142, 0.0
144, 0.0
146, 0.0
148, 0.0
150, 0.0
152, 0.0
154, 0.0
156, 0.0
158, 0.0
160, 0.0
162, 0.0
164, 0.0
166, 0.0
168, 0.0
170, 0.0
172, 0.0
174, 0.0
176, 0.0
178, 0.0
180, 0.0
182, 0.0
184, 0.0
186, 0.0
188, 0.0
190, 0.0
192, 0.0
194, 0.0
196, 0.0
198, 0.0
200, 0.0
202, 0.0
204, 0.0
206, 0.0
208, 0.0
210, 0.0
212, 0.0
214, 0.0
216, 0.0
218, 0.0
220, 0.0
222, 0.0
224, 0.0
226, 0.0
228, 0.0
230, 0.0
232, 0.0
234, 0.0
236, 0.0
238, 0.0
240.0, 0.000617052
242.0, 0.00949952
244.0, 0.00869889
246.0, 0.00746629
248.0, 0.00787433
250.0, 0.011977
252.0, 0.0146
254.0, 0.0175581
256.0, 0.0117488
258.0, 0.0221171
260.0, 0.0193824
262.0, 0.0226381
264.0, 0.0273522
266.0, 0.0284565
268.0, 0.0367492
270.0, 0.0431308
272.0, 0.0489012
274.0, 0.0618598
276.0, 0.0686881
278.0, 0.0787371
280.0, 0.08405
282.0, 0.0834517
284.0, 0.0889318
286.0, 0.0879237
288.0, 0.0789168
290.0, 0.069312
292.0, 0.0519423
294.0, 0.0444536
296.0, 0.0286681
298.0, 0.0183156
300.0, 0.00811465
302.0, 0.00459795
304.0, 0.00535673
306.0, 0.0073703
308.0, 0.00551695
310.0, 0.00176102
312.0, 0.000505628
314.0, 0.0064965
316.0, 0.00810044
318.0, 0.0130865
320.0, 0.0164225
322.0, 0.00815132
324.0, 0.0264626
326.0, 0.0153763
328.0, 0.0209848
330.0, 0.0202757
332.0, 0.032362
334.0, 0.0425159
336.0, 0.047388
338.0, 0.0638852
340.0, 0.0793851
342.0, 0.0902084
344.0, 0.0967284
346.0, 0.115709
348.0, 0.121215
350.0, 0.129193
352.0, 0.128878
354.0, 0.127391
356.0, 0.118601
358.0, 0.113859
360.0, 0.112288
362.0, 0.107559
364.0, 0.102527
366.0, 0.11247
368.0, 0.107919
370.0, 0.113524
372.0, 0.114834
374.0, 0.108819
376.0, 0.108733
378.0, 0.11354
380.0, 0.103224
382.0, 0.105841
384.0, 0.0967194
386.0, 0.0873066
388.0, 0.0863611
390.0, 0.085199
392.0, 0.0792152
394.0, 0.0824634
396.0, 0.0645112
398.0, 0.0674577
400.0, 0.0568288
402.0, 0.040645
404.0, 0.0407417
406.0, 0.0289164
408.0, 0.0300682
410.0, 0.0220241
412.0, 0.0202174
414.0, 0.019531
416.0, 0.0136841
418.0, 0.00863459
420.0, 0.0168214
422.0, 0.0125739
424.0, 0.00538728
426.0, 0.00503202
428.0, 0.000568404
430.0, 0.000603686
432.0, 0.00694
434.0, 0.00157545
436.0, 0.00736225
438.0, 0.00763795
440.0, 0.000507749
442.0, 0.00384693
444.0, 0.00294898
446.0, 0.00725169
448.0, 0.00224721
450.0, 0.00341205
452.0, 0.0060502
454.0, 0.016023
456.0, 0.0185372
458.0, 0.0189548
460.0, 0.0297329
462.0, 0.0358602
464.0, 0.0428842
466.0, 0.0548915
468.0, 0.0539981
470.0, 0.0619838
472.0, 0.0741533
474.0, 0.0815582
476.0, 0.0894698
478.0, 0.0991827
480.0, 0.103816
482.0, 0.1142
484.0, 0.122326
486.0, 0.1277
488.0, 0.124348
490.0, 0.138107
492.0, 0.14055
494.0, 0.146166
496.0, 0.15856
498.0, 0.157414
500.0, 0.161988
502.0, 0.168202
504.0, 0.176733
506.0, 0.179387
508.0, 0.184538
510.0, 0.197048
512.0, 0.201573
514.0, 0.20933
516.0, 0.207634
518.0, 0.223998
520.0, 0.219113
522.0, 0.236649
524.0, 0.239371
526.0, 0.246145
528.0, 0.261528
530.0, 0.267654
532.0, 0.271985
534.0, 0.291379
536.0, 0.289377
538.0, 0.305515
540.0, 0.305532
542.0, 0.30964
544.0, 0.329812
546.0, 0.335921
548.0, 0.344756
550.0, 0.356431
552.0, 0.362553
554.0, 0.372453
556.0, 0.380714
558.0, 0.380535
560.0, 0.390417
562.0, 0.404577
564.0, 0.417872
566.0, 0.420085
568.0, 0.431054
570.0, 0.450345
572.0, 0.457499
574.0, 0.476507
576.0, 0.490515
578.0, 0.492978
580.0, 0.51902
582.0, 0.536934
584.0, 0.548
586.0, 0.570398
588.0, 0.594538
590.0, 0.627636
592.0, 0.655289
594.0, 0.667388
596.0, 0.716045
598.0, 0.732807
600.0, 0.760344
602.0, 0.802961
604.0, 0.829069
606.0, 0.874271
608.0, 0.894549
610.0, 0.921044
612.0, 0.957274
614.0, 0.972757
616.0, 0.994008
618.0, 0.996051
620.0, 0.991509
622.0, 0.987196
624.0, 0.957281
626.0, 0.930228
628.0, 0.884995
630.0, 0.813226
632.0, 0.756565
634.0, 0.677106
636.0, 0.602728
638.0, 0.526547
640.0, 0.454552
642.0, 0.401817
644.0, 0.355766
646.0, 0.311516
648.0, 0.279662
650.0, 0.255503
652.0, 0.234607
654.0, 0.226989
656.0, 0.206673
658.0, 0.203677
660.0, 0.191334
662.0, 0.185882
664.0, 0.18018
666.0, 0.176127
668.0, 0.170183
670.0, 0.172531
672.0, 0.170469
674.0, 0.168984
676.0, 0.164985
678.0, 0.168756
680.0, 0.170314
682.0, 0.162192
684.0, 0.168118
686.0, 0.165836
688.0, 0.175465
690.0, 0.160594
692.0, 0.158154
694.0, 0.153775
696.0, 0.150676
698.0, 0.150077
700.0, 0.146278
702.0, 0.143515
704.0, 0.136911
706.0, 0.131468
708.0, 0.123392
710.0, 0.123642
712.0, 0.115233
714.0, 0.10085
716.0, 0.102226
718.0, 0.0906947
720.0, 0.0879921
722.0, 0.0816464
724.0, 0.0741747
726.0, 0.0730761
728.0, 0.0557125
730.0, 0.0575546
732.0, 0.0569587
734.0, 0.0523199
736.0, 0.0477814
738.0, 0.0393781
740.0, 0.0344881
742.0, 0.0295893
744.0, 0.0274622
746.0, 0.022624
748.0, 0.0193189
750.0, 0.0193881
752.0, 0.0131645
754.0, 0.011463
756.0, 0.0102337
758.0, 0.00521681
760.0, 0.00187203
762.0, 0.00474728
764.0, 0.00144444
766.0, 0.000807377
768.0, 0.00348792
770.0, 0.0037279
772.0, 0.00384498
774.0, 0.0069257
776.0, 0.00859985
778.0, 0.00531369
780.0, 0.00827621
782.0, 0.00935492
784.0, 0.0166877
786.0, 0.0119215
788.0, 0.0102282
790.0, 0.0149402
792.0, 0.00842354
794.0, 0.00376858
796.0, 0.00788888
798.0, 0.00721278
800.0, 0.00892558
802.0, 0.00866494
804.0, 0.00558231
806.0, 0.0101272
808.0, 0.00651672
810.0, 0.0102346
812.0, 0.00743873
814.0, 0.00534382
816.0, 0.00340949
818.0, 0.00483838
820.0, 0.000859783
822.0, 0.00376133
824.0, 0.00289936
826.0, 0.00115146
828.0, 0.00126795
830.0, 0.00326617
832.0, 0.00162466
834.0, 0.00578772
836.0, 0.00684907
838.0, 0.00502337
840.0, 0.0106696
842.0, 0.010186
844.0, 0.010587
846.0, 0.0131356
848.0, 0.0106731
850.0, 0.0114605
852.0, 0.01298
854.0, 0.0129307
856.0, 0.0161899
858.0, 0.015166
860.0, 0.0160397
862.0, 0.0141038
864.0, 0.0146886
866.0, 0.0138919
868.0, 0.0142417
870.0, 0.0143804
872.0, 0.0170553
874.0, 0.0151728
876.0, 0.0188036
878.0, 0.0201849
880.0, 0.0172764
882.0, 0.019824
884.0, 0.0169953
886.0, 0.0225207
888.0, 0.0230685
890.0, 0.0246792
892.0, 0.0243995
894.0, 0.0270981
896.0, 0.0266293
898.0, 0.0322124
900.0, 0.0329515
902.0, 0.0403773
904.0, 0.0341956
906.0, 0.0416306
908.0, 0.0397224
910.0, 0.038212
912.0, 0.0413047
914.0, 0.0439866
916.0, 0.0449454
918.0, 0.0511922
920.0, 0.0485876
922.0, 0.0518449
924.0, 0.0599468
926.0, 0.0558971
928.0, 0.0698093
930.0, 0.0792122
932.0, 0.0867299
934.0, 0.104555
936.0, 0.117179
938.0, 0.148454
940.0, 0.175992
942.0, 0.20587
944.0, 0.251501
946.0, 0.285334
948.0, 0.328492
950.0, 0.375799
952.0, 0.396754
954.0, 0.435426
956.0, 0.438061
958.0, 0.438027
960.0, 0.439084
962.0, 0.405926
964.0, 0.368985
966.0, 0.333792
968.0, 0.285051
970.0, 0.251922
972.0, 0.205581
974.0, 0.174246
976.0, 0.144963
978.0, 0.115235
980.0, 0.0989464
982.0, 0.0871517
984.0, 0.0832572
986.0, 0.0918502
988.0, 0.0961728
990.0, 0.111547
992.0, 0.129775
994.0, 0.151069
996.0, 0.182019
998.0, 0.205653
1000.0, 0.237076
1002.0, 0.274236
1004.0, 0.298422
1006.0, 0.335728
1008.0, 0.362784
1010.0, 0.395985
1012.0, 0.417986
1014.0, 0.434076
1016.0, 0.460897
1018.0, 0.469489
1020.0, 0.469561
1022.0, 0.464881
1024.0, 0.451164
1026.0, 0.441908
1028.0, 0.426939
1030.0, 0.411953
1032.0, 0.402291
1034.0, 0.389511
1036.0, 0.381778
1038.0, 0.367654
1040.0, 0.34977
1042.0, 0.334885
1044.0, 0.315837
1046.0, 0.299324
1048.0, 0.301328
1050.0, 0.285639
1052.0, 0.302323
1054.0, 0.320172
1056.0, 0.314342
1058.0, 0.347203
1060.0, 0.35192
1062.0, 0.369062
1064.0, 0.395764
1066.0, 0.385262
1068.0, 0.401679
1070.0, 0.399252
1072.0, 0.406068
1074.0, 0.416775
1076.0, 0.409877
1078.0, 0.421727
1080.0, 0.418967
1082.0, 0.414088
1084.0, 0.422266
1086.0, 0.410036
1088.0, 0.415204
1090.0, 0.410343
1092.0, 0.409622
1094.0, 0.39387
1096.0, 0.384441
1098.0, 0.376934
1100.0, 0.369284
1102.0, 0.353661
1104.0, 0.348224
1106.0, 0.333283
1108.0, 0.312209
1110.0, 0.317876
1112.0, 0.289967
1114.0, 0.279432
1116.0, 0.264256
1118.0, 0.251215
1120.0, 0.234684
1122.0, 0.229686
1124.0, 0.21426
1126.0, 0.197521
1128.0, 0.181643
1130.0, 0.170474
1132.0, 0.156369
1134.0, 0.146685
1136.0, 0.143026
1138.0, 0.132978
1140.0, 0.125623
1142.0, 0.123452
1144.0, 0.113825
1146.0, 0.116113
1148.0, 0.110692
1150.0, 0.103651
1152.0, 0.103912
1154.0, 0.101945
1156.0, 0.100737
1158.0, 0.099665
1160.0, 0.0958894
1162.0, 0.0996412
1164.0, 0.0973961
1166.0, 0.0959244
1168.0, 0.100623
1170.0, 0.0929969
1172.0, 0.103303
1174.0, 0.0994985
1176.0, 0.103871
1178.0, 0.103712
1180.0, 0.0979512
1182.0, 0.105075
1184.0, 0.105129
1186.0, 0.108548
1188.0, 0.110156
1190.0, 0.113362
1192.0, 0.112761
1194.0, 0.11181
1196.0, 0.104536
1198.0, 0.110425
1200.0, 0.107974
1202.0, 0.126361
1204.0, 0.113829
1206.0, 0.104892
1208.0, 0.106683
1210.0, 0.100537
1212.0, 0.103873
1214.0, 0.100112
1216.0, 0.0932542
1218.0, 0.0949179
1220.0, 0.0903134
1222.0, 0.0869013
1224.0, 0.0879151
1226.0, 0.0774497
1228.0, 0.0754203
1230.0, 0.069238
1232.0, 0.0659978
1234.0, 0.0617033
1236.0, 0.051741
1238.0, 0.0497654
1240.0, 0.0495783
1242.0, 0.0404206
1244.0, 0.0363478
1246.0, 0.0304451
1248.0, 0.0310839
1250.0, 0.0273488
1252.0, 0.0161738
1254.0, 0.018651
1256.0, 0.0162428
1258.0, 0.0118246
1260.0, 0.013008
1262.0, 0.00434869
1264.0, 0.00934256
1266.0, 0.0046331
1268.0, 0.00181134
1270.0, 0.00192704
1272.0, 0.00104585
1274.0, 0.0042848
1276.0, 0.00478592
1278.0, 0.00440482
1280.0, 0.000572253
1282.0, 0.00267131
1284.0, 0.00767347
1286.0, 0.00293294
1288.0, 0.00928981
1290.0, 0.00413136
1292.0, 0.00526285
1294.0, 0.0102086
1296.0, 0.00259506
1298.0, 0.0109237
1300.0, 0.00761105
1302.0, 0.00942264
1304.0, 0.0118042
1306.0, 0.00707151
1308.0, 0.00884987
1310.0, 0.00364776
1312.0, 0.00392627
1314.0, 0.00608365
1316.0, 0.00114177
1318.0, 0.00622146
1320.0, 0.00732041
1322.0, 0.000815029
1324.0, 0.00216304
1326.0, 0.00490021
1328.0, 0.00114096
1330.0, 0.00217421
1332.0, 0.000598291
1334.0, 0.00489932
1336.0, 0.00184831
1338.0, 0.00252681
1340.0, 0.00385655
1342.0, 0.00573827
1344.0, 0.00382256
1346.0, 0.00156984
1348.0, 0.00725922
1350.0, 0.00347063
1352.0, 0.00905116
1354.0, 0.00771749
1356.0, 0.00798235
1358.0, 0.0154773
1360.0, 0.00850009
1362.0, 0.0116155
1364.0, 0.00931796
1366.0, 0.0133518
1368.0, 0.0149747
1370.0, 0.00942191
1372.0, 0.0132726
1374.0, 0.0134858
1376.0, 0.00956675
1378.0, 0.0161647
1380.0, 0.00941671
1382.0, 0.0146625
1384.0, 0.0141704
1386.0, 0.0119567
1388.0, 0.0154036
1390.0, 0.0151993
1392.0, 0.0185574
1394.0, 0.0188816
1396.0, 0.0174821
1398.0, 0.0193716
1400.0, 0.0235616
1402.0, 0.0208481
1404.0, 0.0267723
1406.0, 0.0271224
1408.0, 0.0293892
1410.0, 0.0297031
1412.0, 0.022066
1414.0, 0.0332315
1416.0, 0.0260267
1418.0, 0.0278359
1420.0, 0.0312109
1422.0, 0.0261282
1424.0, 0.0290128
1426.0, 0.0309042
1428.0, 0.026906
1430.0, 0.031182
1432.0, 0.0184755
1434.0, 0.0285416
1436.0, 0.0296875
1438.0, 0.0239276
1440.0, 0.0314462
1442.0, 0.0280082
1444.0, 0.0276813
1446.0, 0.0351583
1448.0, 0.0302719
1450.0, 0.0391053
1452.0, 0.0351285
1454.0, 0.0354269
1456.0, 0.0439685
1458.0, 0.0366196
1460.0, 0.037524
1462.0, 0.0383482
1464.0, 0.0332798
1466.0, 0.0415056
1468.0, 0.0290915
1470.0, 0.0353334
1472.0, 0.0388838
1474.0, 0.0335424
1476.0, 0.0431766
1478.0, 0.0332033
1480.0, 0.0348131
1482.0, 0.043613
1484.0, 0.0300381
1486.0, 0.0326536
1488.0, 0.0297616
1490.0, 0.0260209
1492.0, 0.0313002
1494.0, 0.0183941
1496.0, 0.0251012
1498.0, 0.023439
1500.0, 0.0170632
1502.0, 0.0259798
1504.0, 0.0168422
1506.0, 0.0185601
1508.0, 0.0194533
1510.0, 0.0128982
1512.0, 0.0164093
1514.0, 0.013298
1516.0, 0.0114974
1518.0, 0.0189807
1520.0, 0.00456198
1522.0, 0.0206186
1524.0, 0.0127925
1526.0, 0.0110436
1528.0, 0.0142386
1530.0, 0.00881507
1532.0, 0.00840064
1534.0, 0.0125385
1536, 0.0
1538, 0.0
1540, 0.0
1542, 0.0
1544, 0.0
1546, 0.0
1548, 0.0
1550, 0.0
1552, 0.0
1554, 0.0
1556, 0.0
1558, 0.0
1560, 0.0
1562, 0.0
1564, 0.0
1566, 0.0
1568, 0.0
1570, 0.0
1572, 0.0
1574, 0.0
1576, 0.0
1578, 0.0
1580, 0.0
1582, 0.0
1584, 0.0
1586, 0.0
1588, 0.0
1590, 0.0
1592, 0.0
1594, 0.0
1596, 0.0
1598, 0.0
1599, 0.0