File: raw data/Dataset_2/Cubiczirconia/Cubiczirconia__R040142-3__Raman__514__90__ccw__Raman_Data_Processed__2848.txt
30, 0.0
32, 0.0
34, 0.0
36, 0.0
38, 0.0
40, 0.0
42, 0.0
44, 0.0
46, 0.0
48, 0.0
50, 0.0
52, 0.0
54, 0.0
56, 0.0
58, 0.0
60, 0.0
62, 0.0
64, 0.0
66, 0.0
68, 0.0
70, 0.0
72, 0.0
74, 0.0
76, 0.0
78, 0.0
80, 0.0
82, 0.0
84, 0.0
86, 0.0
88, 0.0
90, 0.0
92, 0.0
94, 0.0
96, 0.0
98, 0.0
100, 0.0
102, 0.0
104, 0.0
106, 0.0
108, 0.0
110, 0.0
112, 0.0
114, 0.0
116, 0.0
118, 0.0
120, 0.0
122, 0.0
124, 0.0
126, 0.0
128, 0.0
130, 0.0
132, 0.0
134, 0.0
136, 0.0
138, 0.0
140, 0.0
142, 0.0
144, 0.0
146, 0.0
148, 0.0
150, 0.0
152, 0.0
154, 0.0
156, 0.0
158, 0.0
160, 0.0
162, 0.0
164, 0.0
166, 0.0
168, 0.0
170, 0.0
172, 0.0
174, 0.0
176, 0.0
178, 0.0
180, 0.0
182, 0.0
184, 0.0
186, 0.0
188, 0.0
190, 0.0
192, 0.0
194, 0.0
196, 0.0
198, 0.0
200, 0.0
202, 0.0
204, 0.0
206, 0.0
208, 0.0
210, 0.0
212, 0.0
214, 0.0
216, 0.0
218, 0.0
220, 0.0
222, 0.0
224, 0.0
226, 0.0
228, 0.0
230, 0.0
232, 0.0
234, 0.0
236, 0.0
238, 0.0
240, 0.0
242, 0.0
244, 0.0
246, 0.0
248, 0.0
250, 0.0
252, 0.0
254, 0.0
256, 0.0
258, 0.0
260, 0.0
262, 0.0
264, 0.0
266, 0.0
268, 0.0
270, 0.0
272, 0.0
274, 0.0
276, 0.0
278, 0.0
280, 0.0
282, 0.0
284, 0.0
286, 0.0
288, 0.0
290, 0.0
292, 0.0
294, 0.0
296, 0.0
298, 0.0
300, 0.0
302, 0.0
304, 0.0
306, 0.0
308, 0.0
310, 0.0
312, 0.0
314, 0.0
316, 0.0
318, 0.0
320, 0.0
322, 0.0
324.0, 0.0227865
326.0, 0.0114182
328.0, 0.0013759
330.0, 0.00294685
332.0, 0.0142288
334.0, 0.0157777
336.0, 0.0216226
338.0, 0.0372607
340.0, 0.0572952
342.0, 0.0593502
344.0, 0.0748525
346.0, 0.0935204
348.0, 0.105606
350.0, 0.117686
352.0, 0.119091
354.0, 0.102294
356.0, 0.0914001
358.0, 0.0753979
360.0, 0.0668073
362.0, 0.0726979
364.0, 0.0755586
366.0, 0.08778
368.0, 0.0967646
370.0, 0.101679
372.0, 0.12119
374.0, 0.121121
376.0, 0.133524
378.0, 0.15516
380.0, 0.145762
382.0, 0.161833
384.0, 0.154494
386.0, 0.160362
388.0, 0.168928
390.0, 0.17033
392.0, 0.187551
394.0, 0.1891
396.0, 0.174978
398.0, 0.183152
400.0, 0.169216
402.0, 0.151708
404.0, 0.144921
406.0, 0.130703
408.0, 0.128839
410.0, 0.108948
412.0, 0.114329
414.0, 0.10433
416.0, 0.101669
418.0, 0.0877194
420.0, 0.0938455
422.0, 0.0919743
424.0, 0.0729859
426.0, 0.0688893
428.0, 0.0656307
430.0, 0.0573914
432.0, 0.0382664
434.0, 0.0379857
436.0, 0.0315901
438.0, 0.0277484
440.0, 0.0233254
442.0, 0.00940242
444.0, 0.0104131
446.0, 0.0106786
448.0, 0.00589689
450.0, 0.00421477
452.0, 0.0077289
454.0, 0.00169341
456.0, 0.00209011
458.0, 0.00980032
460.0, 0.0039461
462.0, 0.00215243
464.0, 0.00695388
466.0, 0.00429259
468.0, 0.00385917
470.0, 0.00415875
472.0, 0.003844
474.0, 0.0128925
476.0, 0.010661
478.0, 0.0120465
480.0, 0.0134807
482.0, 0.0174354
484.0, 0.0182225
486.0, 0.0253144
488.0, 0.0239765
490.0, 0.0451155
492.0, 0.0677648
494.0, 0.0412418
496.0, 0.0529939
498.0, 0.0464317
500.0, 0.0502736
502.0, 0.0589661
504.0, 0.0668483
506.0, 0.0673972
508.0, 0.0766653
510.0, 0.0830485
512.0, 0.0878693
514.0, 0.0923644
516.0, 0.0875188
518.0, 0.108991
520.0, 0.099072
522.0, 0.115343
524.0, 0.117446
526.0, 0.124964
528.0, 0.134938
530.0, 0.138941
532.0, 0.145216
534.0, 0.161481
536.0, 0.159864
538.0, 0.17285
540.0, 0.189339
542.0, 0.174471
544.0, 0.194669
546.0, 0.201257
548.0, 0.210111
550.0, 0.22105
552.0, 0.223417
554.0, 0.236979
556.0, 0.245574
558.0, 0.254856
560.0, 0.262271
562.0, 0.275162
564.0, 0.292531
566.0, 0.301353
568.0, 0.307983
570.0, 0.325711
572.0, 0.330093
574.0, 0.349419
576.0, 0.361489
578.0, 0.36311
580.0, 0.395008
582.0, 0.395556
584.0, 0.406365
586.0, 0.423945
588.0, 0.450028
590.0, 0.470061
592.0, 0.483579
594.0, 0.492386
596.0, 0.521105
598.0, 0.528643
600.0, 0.546425
602.0, 0.57464
604.0, 0.587546
606.0, 0.613032
608.0, 0.623713
610.0, 0.634927
612.0, 0.656721
614.0, 0.670698
616.0, 0.677055
618.0, 0.689914
620.0, 0.696633
622.0, 0.703316
624.0, 0.686427
626.0, 0.680533
628.0, 0.669048
630.0, 0.632487
632.0, 0.612843
634.0, 0.576241
636.0, 0.535205
638.0, 0.490549
640.0, 0.448083
642.0, 0.412516
644.0, 0.378148
646.0, 0.341121
648.0, 0.318092
650.0, 0.304858
652.0, 0.278799
654.0, 0.275038
656.0, 0.261631
658.0, 0.256301
660.0, 0.244449
662.0, 0.24342
664.0, 0.240233
666.0, 0.238144
668.0, 0.23889
670.0, 0.237208
672.0, 0.23256
674.0, 0.242287
676.0, 0.237465
678.0, 0.246659
680.0, 0.248824
682.0, 0.244802
684.0, 0.247326
686.0, 0.245547
688.0, 0.251214
690.0, 0.24327
692.0, 0.248837
694.0, 0.24866
696.0, 0.23914
698.0, 0.236667
700.0, 0.231815
702.0, 0.234314
704.0, 0.219089
706.0, 0.218105
708.0, 0.212547
710.0, 0.205437
712.0, 0.200704
714.0, 0.18417
716.0, 0.183303
718.0, 0.171341
720.0, 0.173596
722.0, 0.157326
724.0, 0.147434
726.0, 0.14494
728.0, 0.122099
730.0, 0.124713
732.0, 0.123202
734.0, 0.109196
736.0, 0.111668
738.0, 0.0993577
740.0, 0.0980244
742.0, 0.0888384
744.0, 0.080257
746.0, 0.0732991
748.0, 0.0660055
750.0, 0.0621808
752.0, 0.0717519
754.0, 0.0580075
756.0, 0.0490673
758.0, 0.0452416
760.0, 0.0316026
762.0, 0.0350895
764.0, 0.0243968
766.0, 0.0229603
768.0, 0.0157849
770.0, 0.0108398
772.0, 0.0177552
774.0, 0.00550179
776.0, 0.00502862
778.0, 0.0106651
780.0, 0.00160019
782.0, 0.00151057
784.0, 0.0168686
786.0, 0.00356511
788.0, 0.00836431
790.0, 0.0171347
792.0, 0.00470591
794.0, 0.0143821
796.0, 0.0169362
798.0, 0.0117928
800.0, 0.0152223
802.0, 0.0134248
804.0, 0.0121373
806.0, 0.0151235
808.0, 0.0157468
810.0, 0.0134167
812.0, 0.0145733
814.0, 0.0127072
816.0, 0.0101019
818.0, 0.0181682
820.0, 0.0052026
822.0, 0.0114791
824.0, 0.00275088
826.0, 0.00244985
828.0, 0.00542822
830.0, 0.00658783
832.0, 0.00749776
834.0, 0.00582039
836.0, 0.00184953
838.0, 0.00304394
840.0, 0.00308559
842.0, 0.00313449
844.0, 0.00263793
846.0, 0.00370449
848.0, 0.00404156
850.0, 0.0137939
852.0, 0.00646374
854.0, 0.00324283
856.0, 0.0149458
858.0, 0.00544153
860.0, 0.0106635
862.0, 0.00487002
864.0, 0.0144021
866.0, 0.00913031
868.0, 0.00587207
870.0, 0.00400595
872.0, 0.0116477
874.0, 0.0099805
876.0, 0.00718494
878.0, 0.00766881
880.0, 0.00704128
882.0, 0.0160747
884.0, 0.00798145
886.0, 0.0235708
888.0, 0.0212945
890.0, 0.0173023
892.0, 0.023612
894.0, 0.0279381
896.0, 0.028613
898.0, 0.0309976
900.0, 0.0366185
902.0, 0.046756
904.0, 0.037979
906.0, 0.0515384
908.0, 0.0561616
910.0, 0.0497384
912.0, 0.0578268
914.0, 0.0587364
916.0, 0.0688425
918.0, 0.079431
920.0, 0.0797101
922.0, 0.0868363
924.0, 0.0981485
926.0, 0.0937201
928.0, 0.129539
930.0, 0.148488
932.0, 0.168242
934.0, 0.20264
936.0, 0.238352
938.0, 0.296502
940.0, 0.363083
942.0, 0.431883
944.0, 0.540136
946.0, 0.604642
948.0, 0.695822
950.0, 0.796472
952.0, 0.831586
954.0, 0.913134
956.0, 0.916998
958.0, 0.922375
960.0, 0.916079
962.0, 0.846806
964.0, 0.756683
966.0, 0.692191
968.0, 0.598199
970.0, 0.518699
972.0, 0.423732
974.0, 0.35116
976.0, 0.292668
978.0, 0.238438
980.0, 0.212309
982.0, 0.184349
984.0, 0.182504
986.0, 0.19497
988.0, 0.202565
990.0, 0.239118
992.0, 0.281024
994.0, 0.326036
996.0, 0.382324
998.0, 0.436642
1000.0, 0.506876
1002.0, 0.575886
1004.0, 0.629403
1006.0, 0.712055
1008.0, 0.764753
1010.0, 0.828985
1012.0, 0.880623
1014.0, 0.919144
1016.0, 0.972177
1018.0, 0.991567
1020.0, 0.982644
1022.0, 0.977273
1024.0, 0.943025
1026.0, 0.915352
1028.0, 0.895218
1030.0, 0.864747
1032.0, 0.833428
1034.0, 0.816572
1036.0, 0.793809
1038.0, 0.760844
1040.0, 0.719089
1042.0, 0.696208
1044.0, 0.660296
1046.0, 0.625484
1048.0, 0.61857
1050.0, 0.600824
1052.0, 0.631974
1054.0, 0.672074
1056.0, 0.663579
1058.0, 0.726768
1060.0, 0.735579
1062.0, 0.768381
1064.0, 0.814948
1066.0, 0.799765
1068.0, 0.85043
1070.0, 0.840086
1072.0, 0.863809
1074.0, 0.877812
1076.0, 0.866172
1078.0, 0.889094
1080.0, 0.871927
1082.0, 0.873628
1084.0, 0.890647
1086.0, 0.858217
1088.0, 0.873765
1090.0, 0.858314
1092.0, 0.845065
1094.0, 0.829417
1096.0, 0.817013
1098.0, 0.792714
1100.0, 0.769585
1102.0, 0.748684
1104.0, 0.730812
1106.0, 0.705018
1108.0, 0.670029
1110.0, 0.665109
1112.0, 0.618743
1114.0, 0.583415
1116.0, 0.562065
1118.0, 0.537597
1120.0, 0.500726
1122.0, 0.488703
1124.0, 0.4552
1126.0, 0.42761
1128.0, 0.385149
1130.0, 0.367288
1132.0, 0.341055
1134.0, 0.319227
1136.0, 0.306178
1138.0, 0.289658
1140.0, 0.278049
1142.0, 0.268618
1144.0, 0.248657
1146.0, 0.266057
1148.0, 0.242851
1150.0, 0.233508
1152.0, 0.231295
1154.0, 0.223256
1156.0, 0.223208
1158.0, 0.215851
1160.0, 0.215569
1162.0, 0.223203
1164.0, 0.208947
1166.0, 0.21276
1168.0, 0.211724
1170.0, 0.206855
1172.0, 0.224781
1174.0, 0.220075
1176.0, 0.225566
1178.0, 0.225695
1180.0, 0.222244
1182.0, 0.226896
1184.0, 0.226219
1186.0, 0.233308
1188.0, 0.229962
1190.0, 0.240011
1192.0, 0.237514
1194.0, 0.236036
1196.0, 0.226496
1198.0, 0.236778
1200.0, 0.22987
1202.0, 0.229606
1204.0, 0.227967
1206.0, 0.226368
1208.0, 0.226889
1210.0, 0.213934
1212.0, 0.219255
1214.0, 0.205002
1216.0, 0.204095
1218.0, 0.198193
1220.0, 0.192305
1222.0, 0.181575
1224.0, 0.179618
1226.0, 0.169249
1228.0, 0.157058
1230.0, 0.147285
1232.0, 0.133772
1234.0, 0.131482
1236.0, 0.109621
1238.0, 0.109042
1240.0, 0.101027
1242.0, 0.0842549
1244.0, 0.0837709
1246.0, 0.0683199
1248.0, 0.0659517
1250.0, 0.0586716
1252.0, 0.0480753
1254.0, 0.0421119
1256.0, 0.0372833
1258.0, 0.0289049
1260.0, 0.0289565
1262.0, 0.0161222
1264.0, 0.0246252
1266.0, 0.0137592
1268.0, 0.00567003
1270.0, 0.00150781
1272.0, 0.00390334
1274.0, 0.00593733
1276.0, 0.000972476
1278.0, 0.00876745
1280.0, 0.00934552
1282.0, 0.00385902
1284.0, 0.0100483
1286.0, 0.00375233
1288.0, 0.0135827
1290.0, 0.00595691
1292.0, 0.00299533
1294.0, 0.0153946
1296.0, 0.0122486
1298.0, 0.0188731
1300.0, 0.0123231
1302.0, 0.0154032
1304.0, 0.0154823
1306.0, 0.0139888
1308.0, 0.0078345
1310.0, 0.00822465
1312.0, 0.00516327
1314.0, 0.012435
1316.0, 0.00406221
1318.0, 0.0144095
1320.0, 0.0172489
1322.0, 0.00331668
1324.0, 0.0115239
1326.0, 0.00195087
1328.0, 0.00680154
1330.0, 0.00487258
1332.0, 0.00864357
1334.0, 0.00309372
1336.0, 0.00223486
1338.0, 0.0044634
1340.0, 0.00580267
1342.0, 0.0124061
1344.0, 0.00447077
1346.0, 0.00800545
1348.0, 0.0115648
1350.0, 0.00606743
1352.0, 0.0147478
1354.0, 0.0126125
1356.0, 0.0176207
1358.0, 0.0227169
1360.0, 0.0133227
1362.0, 0.0185523
1364.0, 0.0137487
1366.0, 0.0255987
1368.0, 0.0248442
1370.0, 0.0120784
1372.0, 0.0190543
1374.0, 0.0263675
1376.0, 0.0205895
1378.0, 0.0231467
1380.0, 0.0151409
1382.0, 0.0271122
1384.0, 0.0248586
1386.0, 0.0186928
1388.0, 0.0324431
1390.0, 0.0251826
1392.0, 0.0282347
1394.0, 0.0341384
1396.0, 0.0331091
1398.0, 0.0392235
1400.0, 0.0433599
1402.0, 0.0455317
1404.0, 0.0548345
1406.0, 0.0553056
1408.0, 0.0544481
1410.0, 0.061519
1412.0, 0.0468201
1414.0, 0.0678134
1416.0, 0.0543256
1418.0, 0.0614264
1420.0, 0.0656471
1422.0, 0.0573083
1424.0, 0.0596242
1426.0, 0.0500312
1428.0, 0.0551256
1430.0, 0.0624667
1432.0, 0.0397221
1434.0, 0.061264
1436.0, 0.0547969
1438.0, 0.0511331
1440.0, 0.0572842
1442.0, 0.0527208
1444.0, 0.0645511
1446.0, 0.0682145
1448.0, 0.0533756
1450.0, 0.0733644
1452.0, 0.0636525
1454.0, 0.065681
1456.0, 0.0819023
1458.0, 0.0692009
1460.0, 0.0696176
1462.0, 0.0661382
1464.0, 0.064966
1466.0, 0.0756143
1468.0, 0.0623374
1470.0, 0.065312
1472.0, 0.0715186
1474.0, 0.0637998
1476.0, 0.0847055
1478.0, 0.0676438
1480.0, 0.0637215
1482.0, 0.0664946
1484.0, 0.0558216
1486.0, 0.0609136
1488.0, 0.0524045
1490.0, 0.0482888
1492.0, 0.0537222
1494.0, 0.0416515
1496.0, 0.0522258
1498.0, 0.0517276
1500.0, 0.035201
1502.0, 0.0482477
1504.0, 0.0394938
1506.0, 0.0313895
1508.0, 0.0345708
1510.0, 0.0309249
1512.0, 0.0244082
1514.0, 0.0340646
1516.0, 0.0179011
1518.0, 0.034477
1520.0, 0.00951525
1522.0, 0.0362223
1524.0, 0.0256897
1526.0, 0.0209148
1528.0, 0.0307398
1530.0, 0.0156576
1532.0, 0.0132216
1534, 0.0
1536, 0.0
1538, 0.0
1540, 0.0
1542, 0.0
1544, 0.0
1546, 0.0
1548, 0.0
1550, 0.0
1552, 0.0
1554, 0.0
1556, 0.0
1558, 0.0
1560, 0.0
1562, 0.0
1564, 0.0
1566, 0.0
1568, 0.0
1570, 0.0
1572, 0.0
1574, 0.0
1576, 0.0
1578, 0.0
1580, 0.0
1582, 0.0
1584, 0.0
1586, 0.0
1588, 0.0
1590, 0.0
1592, 0.0
1594, 0.0
1596, 0.0
1598, 0.0
1599, 0.0