File: raw data/Dataset_2/Cubiczirconia/Cubiczirconia__X080012__Raman__532__0__unoriented__Raman_Data_Processed__31411.txt
30, 0.0
32, 0.0
34, 0.0
36, 0.0
38, 0.0
40, 0.0
42, 0.0
44, 0.0
46, 0.0
48, 0.0
50, 0.0
52, 0.0
54, 0.0
56, 0.0
58, 0.0
60, 0.0
62, 0.0
64, 0.0
66, 0.0
68, 0.0
70, 0.0
72, 0.0
74, 0.0
76, 0.0
78, 0.0
80, 0.0
82, 0.0
84, 0.0
86, 0.0
88, 0.0
90, 0.0
92, 0.0
94, 0.0
96, 0.0
98, 0.0
100, 0.0
102, 0.0
104, 0.0
106, 0.0
108, 0.0
110, 0.0
112, 0.0
114, 0.0
116, 0.0
118, 0.0
120, 0.0
122, 0.0
124, 0.0
126, 0.0
128, 0.0
130, 0.0
132, 0.0
134, 0.0
136, 0.0
138, 0.0
140, 0.0
142, 0.0
144, 0.0
146, 0.0
148, 0.0
150, 0.0
152, 0.0
154, 0.0
156, 0.0
158.0, 0.00258776
160.0, 0.0182215
162.0, 0.0180443
164.0, 0.0244157
166.0, 0.0246336
168.0, 0.0166052
170.0, 0.0172442
172.0, 0.0120576
174.0, 0.0119914
176.0, 0.010431
178.0, 0.0161425
180.0, 0.0160905
182.0, 0.017884
184.0, 0.029694
186.0, 0.0438978
188.0, 0.0289479
190.0, 0.0270365
192.0, 0.0167726
194.0, 0.0184039
196.0, 0.0118845
198.0, 0.00477307
200.0, 0.0062546
202.0, 0.000529358
204.0, 0.00592403
206.0, 0.00808674
208.0, 0.00524205
210.0, 0.00730638
212.0, 0.0106191
214.0, 0.00180489
216.0, 0.00416396
218.0, 0.0187207
220.0, 0.0303466
222.0, 0.0363159
224.0, 0.0442207
226.0, 0.0532622
228.0, 0.0537337
230.0, 0.0607492
232.0, 0.0671637
234.0, 0.0770934
236.0, 0.0807346
238.0, 0.0872672
240.0, 0.0999939
242.0, 0.107038
244.0, 0.109896
246.0, 0.105922
248.0, 0.1069
250.0, 0.112856
252.0, 0.121346
254.0, 0.123003
256.0, 0.128397
258.0, 0.135709
260.0, 0.128738
262.0, 0.126668
264.0, 0.12639
266.0, 0.125661
268.0, 0.123026
270.0, 0.122626
272.0, 0.111967
274.0, 0.107857
276.0, 0.117224
278.0, 0.116414
280.0, 0.113219
282.0, 0.121132
284.0, 0.118065
286.0, 0.115405
288.0, 0.117555
290.0, 0.124881
292.0, 0.128552
294.0, 0.13062
296.0, 0.131824
298.0, 0.139888
300.0, 0.137992
302.0, 0.147176
304.0, 0.151115
306.0, 0.163605
308.0, 0.175221
310.0, 0.183843
312.0, 0.189056
314.0, 0.187365
316.0, 0.187498
318.0, 0.184556
320.0, 0.175309
322.0, 0.146719
324.0, 0.134698
326.0, 0.10931
328.0, 0.0972154
330.0, 0.0708001
332.0, 0.0528433
334.0, 0.0374268
336.0, 0.0260826
338.0, 0.0111691
340.0, 0.00285093
342.0, 0.00620818
344.0, 0.00738686
346.0, 0.00660463
348.0, 0.000855087
350.0, 0.00330847
352.0, 0.012367
354.0, 0.0240985
356.0, 0.0251308
358.0, 0.0397085
360.0, 0.0469011
362.0, 0.0553248
364.0, 0.063097
366.0, 0.0702603
368.0, 0.0728128
370.0, 0.0807231
372.0, 0.0907759
374.0, 0.101713
376.0, 0.105471
378.0, 0.102598
380.0, 0.102795
382.0, 0.0989869
384.0, 0.0936415
386.0, 0.0873759
388.0, 0.0775727
390.0, 0.074316
392.0, 0.064185
394.0, 0.0652509
396.0, 0.0638986
398.0, 0.0542833
400.0, 0.0539374
402.0, 0.0472253
404.0, 0.0337412
406.0, 0.039443
408.0, 0.0359196
410.0, 0.0338285
412.0, 0.0331878
414.0, 0.0399205
416.0, 0.0385427
418.0, 0.0433715
420.0, 0.0394311
422.0, 0.0429624
424.0, 0.0428248
426.0, 0.0429813
428.0, 0.0343694
430.0, 0.0479453
432.0, 0.036238
434.0, 0.0295086
436.0, 0.022653
438.0, 0.0198692
440.0, 0.0161938
442.0, 0.00901804
444.0, 0.00687472
446.0, 0.00171487
448.0, 0.00620738
450.0, 0.00680992
452.0, 0.00747225
454.0, 0.0034872
456.0, 0.0148807
458.0, 0.0116446
460.0, 0.00880943
462.0, 0.00138191
464.0, 0.00223823
466.0, 0.00474512
468.0, 0.00748758
470.0, 0.00751672
472.0, 0.0121146
474.0, 0.0122402
476.0, 0.00620003
478.0, 0.00932108
480.0, 0.010195
482.0, 0.0047782
484.0, 0.001827
486.0, 0.00367241
488.0, 0.0029492
490.0, 0.0063635
492.0, 0.00763832
494.0, 0.00502319
496.0, 0.00241913
498.0, 0.00896767
500.0, 0.00959394
502.0, 0.0136551
504.0, 0.0185157
506.0, 0.0200361
508.0, 0.0232183
510.0, 0.0271365
512.0, 0.0264387
514.0, 0.027194
516.0, 0.0268372
518.0, 0.0361773
520.0, 0.0427271
522.0, 0.0513177
524.0, 0.0621562
526.0, 0.0764924
528.0, 0.086607
530.0, 0.100772
532.0, 0.111236
534.0, 0.128379
536.0, 0.139903
538.0, 0.164669
540.0, 0.176045
542.0, 0.190754
544.0, 0.209018
546.0, 0.217777
548.0, 0.235065
550.0, 0.246826
552.0, 0.257818
554.0, 0.274696
556.0, 0.28224
558.0, 0.300677
560.0, 0.322053
562.0, 0.333165
564.0, 0.348252
566.0, 0.369307
568.0, 0.386065
570.0, 0.403901
572.0, 0.428968
574.0, 0.450652
576.0, 0.471032
578.0, 0.498329
580.0, 0.521164
582.0, 0.553709
584.0, 0.57489
586.0, 0.611995
588.0, 0.648663
590.0, 0.671173
592.0, 0.709445
594.0, 0.740517
596.0, 0.778678
598.0, 0.8139
600.0, 0.850641
602.0, 0.887063
604.0, 0.913667
606.0, 0.952166
608.0, 0.977649
610.0, 0.987074
612.0, 0.999367
614.0, 0.987469
616.0, 0.962527
618.0, 0.931062
620.0, 0.882991
622.0, 0.830125
624.0, 0.765816
626.0, 0.685833
628.0, 0.607321
630.0, 0.526858
632.0, 0.443038
634.0, 0.355049
636.0, 0.283439
638.0, 0.219149
640.0, 0.163485
642.0, 0.113896
644.0, 0.0717735
646.0, 0.0421288
648.0, 0.0153966
650.0, 0.00102649
652.0, 0.00680727
654.0, 0.0162334
656.0, 0.0153186
658.0, 0.0152937
660.0, 0.0180348
662.0, 0.0159161
664.0, 0.0103677
666.0, 0.00625748
668.0, 0.00308653
670.0, 0.00674711
672.0, 0.0166854
674.0, 0.0201575
676.0, 0.0286344
678.0, 0.0368913
680.0, 0.044852
682.0, 0.0523393
684.0, 0.0588061
686.0, 0.0667785
688.0, 0.0831327
690.0, 0.0765586
692.0, 0.0816587
694.0, 0.0848048
696.0, 0.0863701
698.0, 0.0898835
700.0, 0.0909109
702.0, 0.0910547
704.0, 0.0935799
706.0, 0.0915799
708.0, 0.0951307
710.0, 0.090427
712.0, 0.0880699
714.0, 0.0808668
716.0, 0.0711801
718.0, 0.0642455
720.0, 0.0553497
722.0, 0.0448694
724.0, 0.03846
726.0, 0.0318262
728.0, 0.0308153
730.0, 0.0247493
732.0, 0.0243768
734.0, 0.018509
736.0, 0.0193659
738.0, 0.0156915
740.0, 0.0152301
742.0, 0.0146105
744.0, 0.0130311
746.0, 0.0111526
748.0, 0.0110029
750.0, 0.00822889
752.0, 0.00936704
754.0, 0.00751784
756.0, 0.00490849
758.0, 0.0067115
760.0, 0.00576226
762.0, 0.00367624
764.0, 0.00423067
766.0, 0.00161016
768.0, 0.0015672
770.0, 0.00162519
772.0, 0.00116798
774.0, 0.00331383
776.0, 0.00358655
778.0, 0.00417992
780.0, 0.00989908
782.0, 0.0112546
784.0, 0.00482379
786.0, 0.00332387
788.0, 0.00467631
790.0, 0.00437822
792.0, 0.00766688
794.0, 0.00521803
796.0, 0.00507832
798.0, 0.00464003
800.0, 0.00710656
802.0, 0.00638914
804.0, 0.00391369
806.0, 0.00380431
808.0, 0.00187663
810.0, 0.00319553
812.0, 0.00141517
814.0, 0.00165964
816.0, 0.00171398
818.0, 0.000273169
820.0, 0.000936838
822.0, 5.44235e-05
824.0, 0.00137193
826.0, 0.00275101
828.0, 0.00262954
830.0, 0.000617666
832.0, 0.000219705
834.0, 0.00130903
836.0, 0.00168195
838.0, 0.000313775
840.0, 0.00128911
842.0, 0.002173
844.0, 0.000981115
846.0, 0.00213881
848.0, 0.00169745
850.0, 0.000152972
852.0, 0.00175387
854.0, 0.00191807
856.0, 0.00158229
858.0, 0.00131162
860.0, 0.00253966
862.0, 0.00207079
864.0, 0.00102325
866.0, 0.00425474
868.0, 0.000765193
870.0, 0.00339198
872.0, 0.000276148
874.0, 0.00310952
876.0, 0.000865373
878.0, 0.00134929
880.0, 0.00016003
882.0, 0.00214242
884.0, 0.00112262
886.0, 0.000677001
888.0, 0.00273907
890.0, 0.00045625
892.0, 0.00112768
894.0, 0.000434884
896.0, 0.000573026
898.0, 0.00139376
900.0, 0.00113509
902.0, 0.0013438
904.0, 0.00192554
906.0, 0.000692708
908.0, 0.00237523
910.0, 0.00252365
912.0, 0.00211282
914.0, 0.00257537
916.0, 0.00162119
918.0, 0.000362157
920.0, 0.00443016
922.0, 0.00368293
924.0, 0.00402591
926.0, 0.00431621
928.0, 0.00592965
930.0, 0.00950124
932.0, 0.00531559
934.0, 0.00915068
936.0, 0.00610923
938.0, 0.0105198
940.0, 0.00846499
942.0, 0.00721554
944.0, 0.00739708
946.0, 0.0113206
948.0, 0.0116866
950.0, 0.0145245
952.0, 0.0156088
954.0, 0.0167939
956.0, 0.0184159
958.0, 0.0187756
960.0, 0.0201052
962.0, 0.0207327
964.0, 0.0207194
966.0, 0.022982
968.0, 0.0225746
970.0, 0.0224411
972.0, 0.0216597
974.0, 0.0252054
976.0, 0.0246805
978.0, 0.0257039
980.0, 0.0266981
982.0, 0.0260235
984.0, 0.027992
986.0, 0.0244448
988.0, 0.0261224
990.0, 0.0261616
992.0, 0.0230021
994.0, 0.0219333
996.0, 0.0211761
998.0, 0.0214222
1000.0, 0.0202102
1002.0, 0.0192328
1004.0, 0.0172041
1006.0, 0.0189257
1008.0, 0.0178406
1010.0, 0.0160604
1012.0, 0.0171723
1014.0, 0.0123919
1016.0, 0.0142402
1018.0, 0.0116776
1020.0, 0.0135349
1022.0, 0.0114621
1024.0, 0.0103349
1026.0, 0.00696082
1028.0, 0.00751314
1030.0, 0.00647811
1032.0, 0.0083016
1034.0, 0.00391632
1036.0, 0.00578754
1038.0, 0.006224
1040.0, 0.00184282
1042.0, 0.00471344
1044.0, 0.00457018
1046.0, 0.000757676
1048.0, 0.00291342
1050.0, 0.00195687
1052.0, 5.08481e-05
1054.0, 0.000893647
1056.0, 0.00242463
1058.0, 0.0026456
1060.0, 0.00090826
1062.0, 0.000247982
1064.0, 0.00152591
1066.0, 0.00201714
1068.0, 0.000666525
1070.0, 0.00016033
1072.0, 0.000549001
1074.0, 0.000649307
1076.0, 0.00144585
1078.0, 0.000380838
1080.0, 0.000319049
1082.0, 0.000890292
1084.0, 0.000852995
1086.0, 0.000262115
1088.0, 0.00125806
1090.0, 0.00104372
1092.0, 0.00143549
1094.0, 0.000644583
1096.0, 0.000812729
1098.0, 0.001731
1100.0, 0.000570319
1102.0, 0.00206403
1104.0, 0.000425429
1106.0, 6.59587e-05
1108.0, 0.00147582
1110.0, 0.000615372
1112.0, 0.000724732
1114.0, 0.0001821
1116.0, 0.000270701
1118.0, 0.00089696
1120.0, 0.00152336
1122.0, 0.00135167
1124.0, 0.00154854
1126.0, 0.0018939
1128.0, 0.00220861
1130.0, 0.00211946
1132.0, 0.00168128
1134.0, 0.00338253
1136.0, 0.001795
1138.0, 0.0021875
1140.0, 0.00173098
1142.0, 0.0039561
1144.0, 0.00281784
1146.0, 0.00394711
1148.0, 0.00328393
1150.0, 0.00319302
1152.0, 0.00325367
1154.0, 0.0026578
1156.0, 0.00327995
1158.0, 0.0045587
1160.0, 0.00302317
1162.0, 0.00352013
1164.0, 0.00431619
1166.0, 0.00443862
1168.0, 0.00530688
1170.0, 0.00297412
1172.0, 0.00351549
1174.0, 0.00426155
1176.0, 0.0043071
1178.0, 0.00315353
1180.0, 0.00403404
1182.0, 0.0040914
1184.0, 0.00413109
1186.0, 0.0045745
1188.0, 0.00399499
1190.0, 0.00383601
1192.0, 0.00361785
1194.0, 0.00370261
1196.0, 0.00257222
1198.0, 0.00323655
1200.0, 0.00432071
1202.0, 0.00427031
1204.0, 0.00288387
1206.0, 0.00389338
1208.0, 0.00239217
1210.0, 0.00367415
1212.0, 0.00275834
1214.0, 0.00350098
1216.0, 0.00354387
1218.0, 0.00273097
1220.0, 0.00271944
1222.0, 0.00251985
1224.0, 0.00375912
1226.0, 0.00245542
1228.0, 0.00203896
1230.0, 0.00190367
1232.0, 0.002804
1234.0, 0.000748173
1236.0, 0.00163934
1238.0, 0.00158982
1240.0, 0.00184343
1242.0, 0.00139468
1244.0, 0.00168473
1246.0, 0.00143739
1248.0, 0.00223679
1250.0, 0.00181439
1252.0, 0.00163096
1254.0, 0.00115568
1256.0, 0.000332427
1258.0, 0.00161698
1260.0, 0.00056241
1262.0, 0.00115644
1264.0, 0.00146955
1266.0, 0.0014818
1268.0, 0.00141225
1270.0, 0.000814433
1272.0, 0.000521765
1274.0, 0.00198434
1276.0, 0.00137955
1278.0, 0.0017692
1280.0, 0.000718423
1282.0, 0.00214768
1284.0, 0.000983914
1286.0, 0.00171654
1288.0, 0.000713847
1290.0, 0.00113318
1292.0, 0.000893815
1294.0, 0.00010986
1296.0, 0.000313686
1298.0, 0.000353178
1300.0, 0.000640624
1302.0, 0.000218305
1304, 0.0
1306, 0.0
1308, 0.0
1310, 0.0
1312, 0.0
1314, 0.0
1316, 0.0
1318, 0.0
1320, 0.0
1322, 0.0
1324, 0.0
1326, 0.0
1328, 0.0
1330, 0.0
1332, 0.0
1334, 0.0
1336, 0.0
1338, 0.0
1340, 0.0
1342, 0.0
1344, 0.0
1346, 0.0
1348, 0.0
1350, 0.0
1352, 0.0
1354, 0.0
1356, 0.0
1358, 0.0
1360, 0.0
1362, 0.0
1364, 0.0
1366, 0.0
1368, 0.0
1370, 0.0
1372, 0.0
1374, 0.0
1376, 0.0
1378, 0.0
1380, 0.0
1382, 0.0
1384, 0.0
1386, 0.0
1388, 0.0
1390, 0.0
1392, 0.0
1394, 0.0
1396, 0.0
1398, 0.0
1400, 0.0
1402, 0.0
1404, 0.0
1406, 0.0
1408, 0.0
1410, 0.0
1412, 0.0
1414, 0.0
1416, 0.0
1418, 0.0
1420, 0.0
1422, 0.0
1424, 0.0
1426, 0.0
1428, 0.0
1430, 0.0
1432, 0.0
1434, 0.0
1436, 0.0
1438, 0.0
1440, 0.0
1442, 0.0
1444, 0.0
1446, 0.0
1448, 0.0
1450, 0.0
1452, 0.0
1454, 0.0
1456, 0.0
1458, 0.0
1460, 0.0
1462, 0.0
1464, 0.0
1466, 0.0
1468, 0.0
1470, 0.0
1472, 0.0
1474, 0.0
1476, 0.0
1478, 0.0
1480, 0.0
1482, 0.0
1484, 0.0
1486, 0.0
1488, 0.0
1490, 0.0
1492, 0.0
1494, 0.0
1496, 0.0
1498, 0.0
1500, 0.0
1502, 0.0
1504, 0.0
1506, 0.0
1508, 0.0
1510, 0.0
1512, 0.0
1514, 0.0
1516, 0.0
1518, 0.0
1520, 0.0
1522, 0.0
1524, 0.0
1526, 0.0
1528, 0.0
1530, 0.0
1532, 0.0
1534, 0.0
1536, 0.0
1538, 0.0
1540, 0.0
1542, 0.0
1544, 0.0
1546, 0.0
1548, 0.0
1550, 0.0
1552, 0.0
1554, 0.0
1556, 0.0
1558, 0.0
1560, 0.0
1562, 0.0
1564, 0.0
1566, 0.0
1568, 0.0
1570, 0.0
1572, 0.0
1574, 0.0
1576, 0.0
1578, 0.0
1580, 0.0
1582, 0.0
1584, 0.0
1586, 0.0
1588, 0.0
1590, 0.0
1592, 0.0
1594, 0.0
1596, 0.0
1598, 0.0
1599, 0.0