File: raw data/Dataset_2/GlassDy/GlassDy__R110082__Raman__780__0__unoriented__Raman_Data_Processed__35502.txt
30, 0.0
32, 0.0
34, 0.0
36, 0.0
38, 0.0
40, 0.0
42, 0.0
44, 0.0
46, 0.0
48, 0.0
50, 0.0
52, 0.0
54, 0.0
56, 0.0
58, 0.0
60, 0.0
62, 0.0
64, 0.0
66, 0.0
68, 0.0
70, 0.0
72, 0.0
74, 0.0
76, 0.0
78, 0.0
80, 0.0
82, 0.0
84, 0.0
86, 0.0
88, 0.0
90, 0.0
92, 0.0
94, 0.0
96.0, 0.993863
98.0, 0.986736
100.0, 0.962465
102.0, 0.947268
104.0, 0.938538
106.0, 0.940461
108.0, 0.932597
110.0, 0.923495
112.0, 0.929835
114.0, 0.921178
116.0, 0.91855
118.0, 0.915055
120.0, 0.906052
122.0, 0.904527
124.0, 0.903229
126.0, 0.894319
128.0, 0.89022
130.0, 0.891621
132.0, 0.878399
134.0, 0.877216
136.0, 0.869992
138.0, 0.870655
140.0, 0.863683
142.0, 0.856636
144.0, 0.852517
146.0, 0.853535
148.0, 0.84994
150.0, 0.83955
152.0, 0.843884
154.0, 0.835246
156.0, 0.829491
158.0, 0.828957
160.0, 0.827638
162.0, 0.825252
164.0, 0.821195
166.0, 0.814339
168.0, 0.813365
170.0, 0.810524
172.0, 0.80419
174.0, 0.802844
176.0, 0.798735
178.0, 0.799126
180.0, 0.797573
182.0, 0.799807
184.0, 0.789849
186.0, 0.78669
188.0, 0.786344
190.0, 0.777432
192.0, 0.780511
194.0, 0.781655
196.0, 0.777061
198.0, 0.7757
200.0, 0.77232
202.0, 0.770078
204.0, 0.767737
206.0, 0.772308
208.0, 0.771002
210.0, 0.765038
212.0, 0.764578
214.0, 0.763587
216.0, 0.768702
218.0, 0.763585
220.0, 0.766764
222.0, 0.762129
224.0, 0.75978
226.0, 0.758656
228.0, 0.756891
230.0, 0.758916
232.0, 0.753835
234.0, 0.756707
236.0, 0.759408
238.0, 0.757511
240.0, 0.760014
242.0, 0.753273
244.0, 0.758019
246.0, 0.755841
248.0, 0.75246
250.0, 0.756942
252.0, 0.753107
254.0, 0.753095
256.0, 0.751457
258.0, 0.748043
260.0, 0.748192
262.0, 0.752496
264.0, 0.750944
266.0, 0.753353
268.0, 0.752036
270.0, 0.753565
272.0, 0.753266
274.0, 0.750394
276.0, 0.753893
278.0, 0.752991
280.0, 0.753727
282.0, 0.754099
284.0, 0.749756
286.0, 0.751594
288.0, 0.751758
290.0, 0.754171
292.0, 0.752328
294.0, 0.75042
296.0, 0.751051
298.0, 0.751725
300.0, 0.757863
302.0, 0.752722
304.0, 0.75161
306.0, 0.753551
308.0, 0.752165
310.0, 0.754048
312.0, 0.751241
314.0, 0.753977
316.0, 0.757259
318.0, 0.759117
320.0, 0.749
322.0, 0.757363
324.0, 0.753847
326.0, 0.757008
328.0, 0.755921
330.0, 0.758151
332.0, 0.760996
334.0, 0.7529
336.0, 0.75851
338.0, 0.760956
340.0, 0.759882
342.0, 0.759855
344.0, 0.758885
346.0, 0.759615
348.0, 0.762184
350.0, 0.760152
352.0, 0.756478
354.0, 0.760922
356.0, 0.758448
358.0, 0.76198
360.0, 0.757447
362.0, 0.757699
364.0, 0.754299
366.0, 0.754596
368.0, 0.755777
370.0, 0.757396
372.0, 0.757195
374.0, 0.755186
376.0, 0.747175
378.0, 0.750306
380.0, 0.746613
382.0, 0.747701
384.0, 0.748208
386.0, 0.745696
388.0, 0.746452
390.0, 0.742038
392.0, 0.744887
394.0, 0.73928
396.0, 0.738351
398.0, 0.740914
400.0, 0.739426
402.0, 0.733496
404.0, 0.736946
406.0, 0.734133
408.0, 0.73538
410.0, 0.731269
412.0, 0.732255
414.0, 0.731981
416.0, 0.732618
418.0, 0.732727
420.0, 0.727875
422.0, 0.727825
424.0, 0.728444
426.0, 0.731109
428.0, 0.728347
430.0, 0.72758
432.0, 0.726229
434.0, 0.723656
436.0, 0.724629
438.0, 0.724721
440.0, 0.727181
442.0, 0.725004
444.0, 0.725103
446.0, 0.725119
448.0, 0.721969
450.0, 0.722538
452.0, 0.720721
454.0, 0.720778
456.0, 0.723124
458.0, 0.72298
460.0, 0.723667
462.0, 0.721926
464.0, 0.717798
466.0, 0.721401
468.0, 0.71942
470.0, 0.714334
472.0, 0.71381
474.0, 0.712483
476.0, 0.713577
478.0, 0.712139
480.0, 0.706645
482.0, 0.703871
484.0, 0.705868
486.0, 0.702758
488.0, 0.701233
490.0, 0.703472
492.0, 0.699343
494.0, 0.700901
496.0, 0.695383
498.0, 0.696297
500.0, 0.69636
502.0, 0.694315
504.0, 0.689877
506.0, 0.689508
508.0, 0.686276
510.0, 0.686389
512.0, 0.682943
514.0, 0.680657
516.0, 0.674937
518.0, 0.672682
520.0, 0.667139
522.0, 0.66321
524.0, 0.65781
526.0, 0.656598
528.0, 0.652094
530.0, 0.647741
532.0, 0.644133
534.0, 0.637762
536.0, 0.633415
538.0, 0.629581
540.0, 0.628729
542.0, 0.62475
544.0, 0.620602
546.0, 0.61595
548.0, 0.611722
550.0, 0.609492
552.0, 0.604781
554.0, 0.59812
556.0, 0.600106
558.0, 0.596801
560.0, 0.593769
562.0, 0.591306
564.0, 0.589018
566.0, 0.585235
568.0, 0.585372
570.0, 0.578063
572.0, 0.57598
574.0, 0.571262
576.0, 0.572296
578.0, 0.566272
580.0, 0.55987
582.0, 0.557443
584.0, 0.554908
586.0, 0.5509
588.0, 0.547477
590.0, 0.539108
592.0, 0.53429
594.0, 0.531076
596.0, 0.525404
598.0, 0.52367
600.0, 0.516179
602.0, 0.512681
604.0, 0.510209
606.0, 0.500505
608.0, 0.500675
610.0, 0.495506
612.0, 0.490663
614.0, 0.488659
616.0, 0.48318
618.0, 0.481631
620.0, 0.480308
622.0, 0.47451
624.0, 0.472739
626.0, 0.472239
628.0, 0.468258
630.0, 0.46683
632.0, 0.463292
634.0, 0.459873
636.0, 0.460946
638.0, 0.456697
640.0, 0.455362
642.0, 0.454845
644.0, 0.450393
646.0, 0.445254
648.0, 0.444013
650.0, 0.441645
652.0, 0.439488
654.0, 0.433808
656.0, 0.433397
658.0, 0.427994
660.0, 0.428558
662.0, 0.422437
664.0, 0.415253
666.0, 0.415003
668.0, 0.411611
670.0, 0.40684
672.0, 0.405963
674.0, 0.402811
676.0, 0.392714
678.0, 0.39419
680.0, 0.390711
682.0, 0.381626
684.0, 0.382082
686.0, 0.375709
688.0, 0.373872
690.0, 0.367393
692.0, 0.364565
694.0, 0.36136
696.0, 0.356416
698.0, 0.353941
700.0, 0.347034
702.0, 0.346199
704.0, 0.342325
706.0, 0.33855
708.0, 0.335155
710.0, 0.332972
712.0, 0.332464
714.0, 0.326752
716.0, 0.323276
718.0, 0.32135
720.0, 0.318612
722.0, 0.315706
724.0, 0.313112
726.0, 0.311963
728.0, 0.307015
730.0, 0.302285
732.0, 0.304674
734.0, 0.302342
736.0, 0.29761
738.0, 0.296902
740.0, 0.296479
742.0, 0.291806
744.0, 0.289579
746.0, 0.290359
748.0, 0.285932
750.0, 0.281118
752.0, 0.280789
754.0, 0.28157
756.0, 0.278073
758.0, 0.276177
760.0, 0.271936
762.0, 0.271705
764.0, 0.26678
766.0, 0.269225
768.0, 0.266922
770.0, 0.261769
772.0, 0.262263
774.0, 0.259641
776.0, 0.254332
778.0, 0.253782
780.0, 0.253019
782.0, 0.25288
784.0, 0.249193
786.0, 0.245459
788.0, 0.2418
790.0, 0.239933
792.0, 0.237195
794.0, 0.234059
796.0, 0.234223
798.0, 0.232454
800.0, 0.228778
802.0, 0.225305
804.0, 0.22404
806.0, 0.222624
808.0, 0.218524
810.0, 0.217763
812.0, 0.215139
814.0, 0.213241
816.0, 0.211223
818.0, 0.212333
820.0, 0.20881
822.0, 0.207497
824.0, 0.206097
826.0, 0.20586
828.0, 0.206056
830.0, 0.205403
832.0, 0.206216
834.0, 0.205546
836.0, 0.208473
838.0, 0.207743
840.0, 0.210292
842.0, 0.210616
844.0, 0.211741
846.0, 0.215443
848.0, 0.217831
850.0, 0.218829
852.0, 0.223272
854.0, 0.223093
856.0, 0.22638
858.0, 0.233349
860.0, 0.231173
862.0, 0.236808
864.0, 0.240358
866.0, 0.240798
868.0, 0.24822
870.0, 0.25028
872.0, 0.252303
874.0, 0.256443
876.0, 0.258862
878.0, 0.259105
880.0, 0.267725
882.0, 0.269551
884.0, 0.271637
886.0, 0.273296
888.0, 0.276209
890.0, 0.281278
892.0, 0.28392
894.0, 0.284758
896.0, 0.286422
898.0, 0.293315
900.0, 0.293422
902.0, 0.298751
904.0, 0.299796
906.0, 0.303006
908.0, 0.307713
910.0, 0.309245
912.0, 0.313136
914.0, 0.314234
916.0, 0.31741
918.0, 0.318426
920.0, 0.321779
922.0, 0.322949
924.0, 0.323988
926.0, 0.324761
928.0, 0.331074
930.0, 0.331013
932.0, 0.330822
934.0, 0.336517
936.0, 0.334332
938.0, 0.332738
940.0, 0.339096
942.0, 0.337397
944.0, 0.339491
946.0, 0.341241
948.0, 0.342658
950.0, 0.343271
952.0, 0.346758
954.0, 0.341247
956.0, 0.344797
958.0, 0.347431
960.0, 0.348079
962.0, 0.344382
964.0, 0.346714
966.0, 0.344532
968.0, 0.346054
970.0, 0.347028
972.0, 0.349941
974.0, 0.346437
976.0, 0.350046
978.0, 0.349409
980.0, 0.349359
982.0, 0.350654
984.0, 0.348817
986.0, 0.349402
988.0, 0.346042
990.0, 0.345505
992.0, 0.348829
994.0, 0.343584
996.0, 0.346711
998.0, 0.345845
1000.0, 0.343745
1002.0, 0.342723
1004.0, 0.341228
1006.0, 0.337949
1008.0, 0.337858
1010.0, 0.335943
1012.0, 0.33838
1014.0, 0.333825
1016.0, 0.332439
1018.0, 0.327762
1020.0, 0.32275
1022.0, 0.324488
1024.0, 0.318117
1026.0, 0.32028
1028.0, 0.314995
1030.0, 0.309716
1032.0, 0.306515
1034.0, 0.303675
1036.0, 0.303116
1038.0, 0.294909
1040.0, 0.292024
1042.0, 0.286134
1044.0, 0.284966
1046.0, 0.280622
1048.0, 0.274766
1050.0, 0.269164
1052.0, 0.260893
1054.0, 0.256384
1056.0, 0.251774
1058.0, 0.248262
1060.0, 0.240148
1062.0, 0.234649
1064.0, 0.230413
1066.0, 0.224119
1068.0, 0.216327
1070.0, 0.213046
1072.0, 0.207893
1074.0, 0.200555
1076.0, 0.194282
1078.0, 0.188613
1080.0, 0.181871
1082.0, 0.178928
1084.0, 0.170903
1086.0, 0.167095
1088.0, 0.163476
1090.0, 0.155369
1092.0, 0.150491
1094.0, 0.147945
1096.0, 0.141954
1098.0, 0.137037
1100.0, 0.130443
1102.0, 0.127204
1104.0, 0.124109
1106.0, 0.115568
1108.0, 0.116768
1110.0, 0.110906
1112.0, 0.104471
1114.0, 0.103933
1116.0, 0.0993403
1118.0, 0.0964934
1120.0, 0.0942674
1122.0, 0.0886756
1124.0, 0.0873055
1126.0, 0.0827116
1128.0, 0.0794004
1130.0, 0.0792722
1132.0, 0.0767591
1134.0, 0.0735002
1136.0, 0.0722749
1138.0, 0.0679038
1140.0, 0.0671031
1142.0, 0.0643468
1144.0, 0.0616616
1146.0, 0.0575154
1148.0, 0.0561771
1150.0, 0.0573417
1152.0, 0.0541462
1154.0, 0.0527597
1156.0, 0.0485898
1158.0, 0.0489146
1160.0, 0.0462539
1162.0, 0.0470426
1164.0, 0.0430024
1166.0, 0.0417744
1168.0, 0.0393192
1170.0, 0.0406741
1172.0, 0.0377247
1174.0, 0.0356993
1176.0, 0.0347158
1178.0, 0.0341792
1180.0, 0.033792
1182.0, 0.0296949
1184.0, 0.0300653
1186.0, 0.0278746
1188.0, 0.0266135
1190.0, 0.0247323
1192.0, 0.0246843
1194.0, 0.0244321
1196.0, 0.0234467
1198.0, 0.0212899
1200.0, 0.0224467
1202.0, 0.020596
1204.0, 0.0228569
1206.0, 0.017578
1208.0, 0.019636
1210.0, 0.0191847
1212.0, 0.0188726
1214.0, 0.0160447
1216.0, 0.0132529
1218.0, 0.0134179
1220.0, 0.0139912
1222.0, 0.0117776
1224.0, 0.0111546
1226.0, 0.0100802
1228.0, 0.00927111
1230.0, 0.0117751
1232.0, 0.00819514
1234.0, 0.00925738
1236.0, 0.00970029
1238.0, 0.00924834
1240.0, 0.00685139
1242.0, 0.00649353
1244.0, 0.0058641
1246.0, 0.00690585
1248.0, 0.00498682
1250.0, 0.00732496
1252.0, 0.00687069
1254.0, 0.00484631
1256.0, 0.00421987
1258.0, 0.00549032
1260.0, 0.00617032
1262.0, 0.00436837
1264.0, 0.00223075
1266.0, 0.00451514
1268.0, 0.00338014
1270.0, 0.00404448
1272.0, 0.00438575
1274.0, 0.00723959
1276.0, 0.00371496
1278.0, 0.00194167
1280.0, 0.00128042
1282.0, 0.00217538
1284.0, 0.00348716
1286, 0.0
1288, 0.0
1290, 0.0
1292, 0.0
1294, 0.0
1296, 0.0
1298, 0.0
1300, 0.0
1302, 0.0
1304, 0.0
1306, 0.0
1308, 0.0
1310, 0.0
1312, 0.0
1314, 0.0
1316, 0.0
1318, 0.0
1320, 0.0
1322, 0.0
1324, 0.0
1326, 0.0
1328, 0.0
1330, 0.0
1332, 0.0
1334, 0.0
1336, 0.0
1338, 0.0
1340, 0.0
1342, 0.0
1344, 0.0
1346, 0.0
1348, 0.0
1350, 0.0
1352, 0.0
1354, 0.0
1356, 0.0
1358, 0.0
1360, 0.0
1362, 0.0
1364, 0.0
1366, 0.0
1368, 0.0
1370, 0.0
1372, 0.0
1374, 0.0
1376, 0.0
1378, 0.0
1380, 0.0
1382, 0.0
1384, 0.0
1386, 0.0
1388, 0.0
1390, 0.0
1392, 0.0
1394, 0.0
1396, 0.0
1398, 0.0
1400, 0.0
1402, 0.0
1404, 0.0
1406, 0.0
1408, 0.0
1410, 0.0
1412, 0.0
1414, 0.0
1416, 0.0
1418, 0.0
1420, 0.0
1422, 0.0
1424, 0.0
1426, 0.0
1428, 0.0
1430, 0.0
1432, 0.0
1434, 0.0
1436, 0.0
1438, 0.0
1440, 0.0
1442, 0.0
1444, 0.0
1446, 0.0
1448, 0.0
1450, 0.0
1452, 0.0
1454, 0.0
1456, 0.0
1458, 0.0
1460, 0.0
1462, 0.0
1464, 0.0
1466, 0.0
1468, 0.0
1470, 0.0
1472, 0.0
1474, 0.0
1476, 0.0
1478, 0.0
1480, 0.0
1482, 0.0
1484, 0.0
1486, 0.0
1488, 0.0
1490, 0.0
1492, 0.0
1494, 0.0
1496, 0.0
1498, 0.0
1500, 0.0
1502, 0.0
1504, 0.0
1506, 0.0
1508, 0.0
1510, 0.0
1512, 0.0
1514, 0.0
1516, 0.0
1518, 0.0
1520, 0.0
1522, 0.0
1524, 0.0
1526, 0.0
1528, 0.0
1530, 0.0
1532, 0.0
1534, 0.0
1536, 0.0
1538, 0.0
1540, 0.0
1542, 0.0
1544, 0.0
1546, 0.0
1548, 0.0
1550, 0.0
1552, 0.0
1554, 0.0
1556, 0.0
1558, 0.0
1560, 0.0
1562, 0.0
1564, 0.0
1566, 0.0
1568, 0.0
1570, 0.0
1572, 0.0
1574, 0.0
1576, 0.0
1578, 0.0
1580, 0.0
1582, 0.0
1584, 0.0
1586, 0.0
1588, 0.0
1590, 0.0
1592, 0.0
1594, 0.0
1596, 0.0
1598, 0.0
1599, 0.0