File: raw data/Dataset_2/GlassDy/GlassDy__R110082__Raman__532__0__unoriented__Raman_Data_Processed__35503.txt
30, 0.0
32, 0.0
34, 0.0
36, 0.0
38, 0.0
40, 0.0
42, 0.0
44, 0.0
46, 0.0
48, 0.0
50, 0.0
52, 0.0
54, 0.0
56, 0.0
58, 0.0
60, 0.0
62, 0.0
64, 0.0
66, 0.0
68, 0.0
70, 0.0
72, 0.0
74, 0.0
76, 0.0
78, 0.0
80, 0.0
82, 0.0
84, 0.0
86, 0.0
88, 0.0
90, 0.0
92, 0.0
94, 0.0
96, 0.0
98, 0.0
100, 0.0
102, 0.0
104, 0.0
106, 0.0
108, 0.0
110, 0.0
112, 0.0
114, 0.0
116, 0.0
118, 0.0
120, 0.0
122, 0.0
124, 0.0
126, 0.0
128, 0.0
130, 0.0
132, 0.0
134, 0.0
136, 0.0
138, 0.0
140, 0.0
142, 0.0
144, 0.0
146, 0.0
148, 0.0
150, 0.0
152, 0.0
154, 0.0
156, 0.0
158, 0.0
160, 0.0
162, 0.0
164, 0.0
166, 0.0
168, 0.0
170, 0.0
172, 0.0
174, 0.0
176, 0.0
178, 0.0
180, 0.0
182, 0.0
184, 0.0
186, 0.0
188, 0.0
190, 0.0
192, 0.0
194, 0.0
196, 0.0
198.0, 0.98681
200.0, 0.995155
202.0, 0.997141
204.0, 0.997604
206.0, 0.996291
208.0, 0.999595
210.0, 0.986011
212.0, 0.981054
214.0, 0.982173
216.0, 0.983502
218.0, 0.977984
220.0, 0.98365
222.0, 0.979655
224.0, 0.980985
226.0, 0.970439
228.0, 0.976991
230.0, 0.966577
232.0, 0.970924
234.0, 0.972104
236.0, 0.967857
238.0, 0.96847
240.0, 0.961517
242.0, 0.958745
244.0, 0.962912
246.0, 0.952561
248.0, 0.958107
250.0, 0.952441
252.0, 0.956417
254.0, 0.947728
256.0, 0.954107
258.0, 0.950565
260.0, 0.948879
262.0, 0.947852
264.0, 0.951724
266.0, 0.946993
268.0, 0.948476
270.0, 0.947085
272.0, 0.947754
274.0, 0.950433
276.0, 0.952295
278.0, 0.949012
280.0, 0.945721
282.0, 0.945358
284.0, 0.941338
286.0, 0.942363
288.0, 0.940364
290.0, 0.937953
292.0, 0.940707
294.0, 0.947161
296.0, 0.941398
298.0, 0.950397
300.0, 0.949628
302.0, 0.954423
304.0, 0.9539
306.0, 0.952912
308.0, 0.955427
310.0, 0.951275
312.0, 0.955916
314.0, 0.954825
316.0, 0.961619
318.0, 0.959541
320.0, 0.960218
322.0, 0.957483
324.0, 0.961286
326.0, 0.960336
328.0, 0.961617
330.0, 0.969468
332.0, 0.967834
334.0, 0.966138
336.0, 0.973418
338.0, 0.972849
340.0, 0.974615
342.0, 0.973466
344.0, 0.977123
346.0, 0.979168
348.0, 0.976546
350.0, 0.976846
352.0, 0.9748
354.0, 0.980508
356.0, 0.985026
358.0, 0.986404
360.0, 0.982906
362.0, 0.983225
364.0, 0.981599
366.0, 0.987288
368.0, 0.981123
370.0, 0.984097
372.0, 0.985004
374.0, 0.985089
376.0, 0.982477
378.0, 0.982331
380.0, 0.981693
382.0, 0.978164
384.0, 0.981686
386.0, 0.98304
388.0, 0.980554
390.0, 0.977311
392.0, 0.985216
394.0, 0.97775
396.0, 0.980666
398.0, 0.980599
400.0, 0.979329
402.0, 0.97289
404.0, 0.97962
406.0, 0.985748
408.0, 0.980591
410.0, 0.976223
412.0, 0.985645
414.0, 0.985107
416.0, 0.982153
418.0, 0.984274
420.0, 0.979307
422.0, 0.982877
424.0, 0.979507
426.0, 0.980388
428.0, 0.985675
430.0, 0.98752
432.0, 0.987616
434.0, 0.98333
436.0, 0.982421
438.0, 0.985357
440.0, 0.987521
442.0, 0.991806
444.0, 0.984684
446.0, 0.985076
448.0, 0.994178
450.0, 0.990315
452.0, 0.989295
454.0, 0.984505
456.0, 0.987048
458.0, 0.995081
460.0, 0.995584
462.0, 0.998421
464.0, 0.991085
466.0, 0.992032
468.0, 0.993628
470.0, 0.986662
472.0, 0.991623
474.0, 0.985145
476.0, 0.991999
478.0, 0.991981
480.0, 0.986222
482.0, 0.986932
484.0, 0.99282
486.0, 0.98714
488.0, 0.986434
490.0, 0.984912
492.0, 0.981332
494.0, 0.984367
496.0, 0.978571
498.0, 0.98388
500.0, 0.977061
502.0, 0.973766
504.0, 0.966764
506.0, 0.968087
508.0, 0.968653
510.0, 0.965666
512.0, 0.958893
514.0, 0.95385
516.0, 0.952825
518.0, 0.947094
520.0, 0.940835
522.0, 0.934361
524.0, 0.930171
526.0, 0.928687
528.0, 0.926633
530.0, 0.909463
532.0, 0.903327
534.0, 0.902712
536.0, 0.889657
538.0, 0.887215
540.0, 0.880039
542.0, 0.871181
544.0, 0.864732
546.0, 0.859729
548.0, 0.857446
550.0, 0.851657
552.0, 0.842762
554.0, 0.839811
556.0, 0.836144
558.0, 0.828253
560.0, 0.823849
562.0, 0.818502
564.0, 0.815031
566.0, 0.814137
568.0, 0.804968
570.0, 0.801315
572.0, 0.799732
574.0, 0.798582
576.0, 0.781145
578.0, 0.786154
580.0, 0.776179
582.0, 0.774408
584.0, 0.763306
586.0, 0.760432
588.0, 0.743906
590.0, 0.742854
592.0, 0.73898
594.0, 0.729074
596.0, 0.724762
598.0, 0.713217
600.0, 0.709569
602.0, 0.700192
604.0, 0.688045
606.0, 0.687826
608.0, 0.676693
610.0, 0.675568
612.0, 0.671021
614.0, 0.665822
616.0, 0.658063
618.0, 0.651504
620.0, 0.649383
622.0, 0.645948
624.0, 0.638198
626.0, 0.6372
628.0, 0.634324
630.0, 0.624864
632.0, 0.627237
634.0, 0.629148
636.0, 0.625437
638.0, 0.619779
640.0, 0.618619
642.0, 0.612552
644.0, 0.611132
646.0, 0.609572
648.0, 0.604579
650.0, 0.600203
652.0, 0.601597
654.0, 0.600665
656.0, 0.596158
658.0, 0.592905
660.0, 0.589864
662.0, 0.584531
664.0, 0.579357
666.0, 0.570884
668.0, 0.567595
670.0, 0.562882
672.0, 0.560061
674.0, 0.553824
676.0, 0.553497
678.0, 0.540147
680.0, 0.533535
682.0, 0.538215
684.0, 0.525788
686.0, 0.522745
688.0, 0.517201
690.0, 0.509302
692.0, 0.505239
694.0, 0.496436
696.0, 0.498188
698.0, 0.484773
700.0, 0.481402
702.0, 0.475316
704.0, 0.472727
706.0, 0.463562
708.0, 0.458806
710.0, 0.455979
712.0, 0.448034
714.0, 0.444179
716.0, 0.437035
718.0, 0.432436
720.0, 0.426586
722.0, 0.421883
724.0, 0.422111
726.0, 0.412874
728.0, 0.4126
730.0, 0.406985
732.0, 0.400912
734.0, 0.392078
736.0, 0.390665
738.0, 0.38849
740.0, 0.382302
742.0, 0.380703
744.0, 0.374825
746.0, 0.369033
748.0, 0.363457
750.0, 0.366334
752.0, 0.357195
754.0, 0.348762
756.0, 0.351468
758.0, 0.346818
760.0, 0.342507
762.0, 0.336066
764.0, 0.33018
766.0, 0.327555
768.0, 0.326013
770.0, 0.321564
772.0, 0.320151
774.0, 0.31054
776.0, 0.306225
778.0, 0.303769
780.0, 0.292961
782.0, 0.293803
784.0, 0.292025
786.0, 0.284414
788.0, 0.279515
790.0, 0.268519
792.0, 0.269259
794.0, 0.262895
796.0, 0.257892
798.0, 0.251316
800.0, 0.246539
802.0, 0.243025
804.0, 0.239606
806.0, 0.232289
808.0, 0.229083
810.0, 0.227254
812.0, 0.220681
814.0, 0.215548
816.0, 0.215295
818.0, 0.210867
820.0, 0.206356
822.0, 0.204842
824.0, 0.202171
826.0, 0.198822
828.0, 0.199705
830.0, 0.1941
832.0, 0.197409
834.0, 0.198759
836.0, 0.201047
838.0, 0.201561
840.0, 0.201088
842.0, 0.207567
844.0, 0.206985
846.0, 0.214078
848.0, 0.21762
850.0, 0.222436
852.0, 0.228379
854.0, 0.235933
856.0, 0.241032
858.0, 0.250667
860.0, 0.253344
862.0, 0.261715
864.0, 0.273737
866.0, 0.273388
868.0, 0.280762
870.0, 0.287789
872.0, 0.294615
874.0, 0.308169
876.0, 0.314777
878.0, 0.316887
880.0, 0.327325
882.0, 0.334879
884.0, 0.340941
886.0, 0.351085
888.0, 0.355945
890.0, 0.36827
892.0, 0.369589
894.0, 0.381802
896.0, 0.388691
898.0, 0.398527
900.0, 0.401618
902.0, 0.411626
904.0, 0.414935
906.0, 0.427372
908.0, 0.437303
910.0, 0.442881
912.0, 0.44821
914.0, 0.448935
916.0, 0.462098
918.0, 0.466783
920.0, 0.472921
922.0, 0.48076
924.0, 0.491012
926.0, 0.492973
928.0, 0.503042
930.0, 0.505204
932.0, 0.507607
934.0, 0.51308
936.0, 0.516793
938.0, 0.518838
940.0, 0.521721
942.0, 0.533097
944.0, 0.533543
946.0, 0.533289
948.0, 0.549608
950.0, 0.545461
952.0, 0.550336
954.0, 0.558218
956.0, 0.558693
958.0, 0.559033
960.0, 0.565319
962.0, 0.567464
964.0, 0.57054
966.0, 0.57948
968.0, 0.576891
970.0, 0.581434
972.0, 0.582238
974.0, 0.582458
976.0, 0.586456
978.0, 0.590963
980.0, 0.595607
982.0, 0.592063
984.0, 0.594644
986.0, 0.593793
988.0, 0.59796
990.0, 0.59947
992.0, 0.600538
994.0, 0.602767
996.0, 0.598116
998.0, 0.600414
1000.0, 0.59884
1002.0, 0.597911
1004.0, 0.596016
1006.0, 0.594674
1008.0, 0.599556
1010.0, 0.596056
1012.0, 0.591573
1014.0, 0.59133
1016.0, 0.58804
1018.0, 0.587195
1020.0, 0.584436
1022.0, 0.581703
1024.0, 0.577978
1026.0, 0.57326
1028.0, 0.564794
1030.0, 0.560194
1032.0, 0.559107
1034.0, 0.54738
1036.0, 0.549027
1038.0, 0.538899
1040.0, 0.529039
1042.0, 0.522076
1044.0, 0.507638
1046.0, 0.508207
1048.0, 0.492448
1050.0, 0.487536
1052.0, 0.478243
1054.0, 0.473188
1056.0, 0.460248
1058.0, 0.452811
1060.0, 0.439163
1062.0, 0.42935
1064.0, 0.414196
1066.0, 0.403881
1068.0, 0.395905
1070.0, 0.384826
1072.0, 0.372297
1074.0, 0.366167
1076.0, 0.35132
1078.0, 0.341955
1080.0, 0.331335
1082.0, 0.32122
1084.0, 0.316393
1086.0, 0.301266
1088.0, 0.286755
1090.0, 0.280619
1092.0, 0.27341
1094.0, 0.262146
1096.0, 0.250232
1098.0, 0.243621
1100.0, 0.235102
1102.0, 0.226562
1104.0, 0.215716
1106.0, 0.207249
1108.0, 0.199333
1110.0, 0.196422
1112.0, 0.185429
1114.0, 0.179648
1116.0, 0.174141
1118.0, 0.164512
1120.0, 0.166249
1122.0, 0.152561
1124.0, 0.14519
1126.0, 0.144152
1128.0, 0.136874
1130.0, 0.137176
1132.0, 0.13079
1134.0, 0.120397
1136.0, 0.120733
1138.0, 0.114507
1140.0, 0.108837
1142.0, 0.106749
1144.0, 0.105585
1146.0, 0.101043
1148.0, 0.0953514
1150.0, 0.0933399
1152.0, 0.0917829
1154.0, 0.0895128
1156.0, 0.0786939
1158.0, 0.0778512
1160.0, 0.071034
1162.0, 0.0703315
1164.0, 0.0734052
1166.0, 0.0690268
1168.0, 0.0659837
1170.0, 0.0632714
1172.0, 0.062671
1174.0, 0.057428
1176.0, 0.057999
1178.0, 0.0533395
1180.0, 0.0499984
1182.0, 0.0479998
1184.0, 0.0476927
1186.0, 0.0471193
1188.0, 0.0388723
1190.0, 0.0397509
1192.0, 0.039928
1194.0, 0.04082
1196.0, 0.0333304
1198.0, 0.0338259
1200.0, 0.0318415
1202.0, 0.0280508
1204.0, 0.0250178
1206.0, 0.0249407
1208.0, 0.0261979
1210.0, 0.0228577
1212.0, 0.0221399
1214.0, 0.0243111
1216.0, 0.019132
1218.0, 0.0201493
1220.0, 0.0174063
1222.0, 0.023541
1224.0, 0.0187368
1226.0, 0.0172796
1228.0, 0.0138496
1230.0, 0.015957
1232.0, 0.0109995
1234.0, 0.0135462
1236.0, 0.013436
1238.0, 0.0101943
1240.0, 0.00846385
1242.0, 0.0110554
1244.0, 0.00831388
1246.0, 0.0140876
1248.0, 0.00532869
1250.0, 0.00656418
1252.0, 0.00986826
1254.0, 0.0109487
1256.0, 0.0056022
1258.0, 0.00660868
1260.0, 0.0046348
1262.0, 0.00890387
1264.0, 0.00648281
1266.0, 0.00715737
1268.0, 0.0100818
1270.0, 0.00544929
1272.0, 0.00402935
1274.0, 0.00559025
1276.0, 0.00703254
1278.0, 0.00309265
1280.0, 0.00824598
1282.0, 0.00430101
1284.0, 0.00315419
1286.0, 0.00713165
1288.0, 0.00613708
1290.0, 0.00746795
1292.0, 0.0143395
1294.0, 0.00700421
1296.0, 0.00395267
1298.0, 0.00518934
1300.0, 0.000793053
1302.0, 0.00551005
1304, 0.0
1306, 0.0
1308, 0.0
1310, 0.0
1312, 0.0
1314, 0.0
1316, 0.0
1318, 0.0
1320, 0.0
1322, 0.0
1324, 0.0
1326, 0.0
1328, 0.0
1330, 0.0
1332, 0.0
1334, 0.0
1336, 0.0
1338, 0.0
1340, 0.0
1342, 0.0
1344, 0.0
1346, 0.0
1348, 0.0
1350, 0.0
1352, 0.0
1354, 0.0
1356, 0.0
1358, 0.0
1360, 0.0
1362, 0.0
1364, 0.0
1366, 0.0
1368, 0.0
1370, 0.0
1372, 0.0
1374, 0.0
1376, 0.0
1378, 0.0
1380, 0.0
1382, 0.0
1384, 0.0
1386, 0.0
1388, 0.0
1390, 0.0
1392, 0.0
1394, 0.0
1396, 0.0
1398, 0.0
1400, 0.0
1402, 0.0
1404, 0.0
1406, 0.0
1408, 0.0
1410, 0.0
1412, 0.0
1414, 0.0
1416, 0.0
1418, 0.0
1420, 0.0
1422, 0.0
1424, 0.0
1426, 0.0
1428, 0.0
1430, 0.0
1432, 0.0
1434, 0.0
1436, 0.0
1438, 0.0
1440, 0.0
1442, 0.0
1444, 0.0
1446, 0.0
1448, 0.0
1450, 0.0
1452, 0.0
1454, 0.0
1456, 0.0
1458, 0.0
1460, 0.0
1462, 0.0
1464, 0.0
1466, 0.0
1468, 0.0
1470, 0.0
1472, 0.0
1474, 0.0
1476, 0.0
1478, 0.0
1480, 0.0
1482, 0.0
1484, 0.0
1486, 0.0
1488, 0.0
1490, 0.0
1492, 0.0
1494, 0.0
1496, 0.0
1498, 0.0
1500, 0.0
1502, 0.0
1504, 0.0
1506, 0.0
1508, 0.0
1510, 0.0
1512, 0.0
1514, 0.0
1516, 0.0
1518, 0.0
1520, 0.0
1522, 0.0
1524, 0.0
1526, 0.0
1528, 0.0
1530, 0.0
1532, 0.0
1534, 0.0
1536, 0.0
1538, 0.0
1540, 0.0
1542, 0.0
1544, 0.0
1546, 0.0
1548, 0.0
1550, 0.0
1552, 0.0
1554, 0.0
1556, 0.0
1558, 0.0
1560, 0.0
1562, 0.0
1564, 0.0
1566, 0.0
1568, 0.0
1570, 0.0
1572, 0.0
1574, 0.0
1576, 0.0
1578, 0.0
1580, 0.0
1582, 0.0
1584, 0.0
1586, 0.0
1588, 0.0
1590, 0.0
1592, 0.0
1594, 0.0
1596, 0.0
1598, 0.0
1599, 0.0