File: raw data/Dataset_2/Ferroericssonite/Ferroericssonite__R070406__Raman__532__0__unoriented__Raman_Data_Processed__21617.txt
30, 0.0
32, 0.0
34, 0.0
36, 0.0
38, 0.0
40, 0.0
42, 0.0
44, 0.0
46, 0.0
48, 0.0
50, 0.0
52, 0.0
54, 0.0
56, 0.0
58, 0.0
60, 0.0
62, 0.0
64, 0.0
66, 0.0
68, 0.0
70, 0.0
72, 0.0
74, 0.0
76, 0.0
78, 0.0
80, 0.0
82, 0.0
84, 0.0
86, 0.0
88, 0.0
90, 0.0
92, 0.0
94, 0.0
96, 0.0
98, 0.0
100, 0.0
102, 0.0
104, 0.0
106, 0.0
108, 0.0
110, 0.0
112, 0.0
114, 0.0
116, 0.0
118, 0.0
120, 0.0
122, 0.0
124, 0.0
126, 0.0
128, 0.0
130, 0.0
132, 0.0
134, 0.0
136, 0.0
138, 0.0
140, 0.0
142, 0.0
144, 0.0
146, 0.0
148, 0.0
150.0, 0.000913467
152.0, 0.00141218
154.0, 0.018679
156.0, 0.0229728
158.0, 0.00342421
160.0, 0.0086869
162.0, 0.00711403
164.0, 0.0161031
166.0, 0.00553249
168.0, 0.0267361
170.0, 0.0320874
172.0, 0.048591
174.0, 0.0597514
176.0, 0.0716671
178.0, 0.091289
180.0, 0.105752
182.0, 0.136803
184.0, 0.155918
186.0, 0.180113
188.0, 0.188111
190.0, 0.246769
192.0, 0.225438
194.0, 0.231307
196.0, 0.254191
198.0, 0.252927
200.0, 0.260874
202.0, 0.261101
204.0, 0.253846
206.0, 0.244712
208.0, 0.237632
210.0, 0.203841
212.0, 0.183499
214.0, 0.170573
216.0, 0.137095
218.0, 0.129571
220.0, 0.111164
222.0, 0.0945779
224.0, 0.0819314
226.0, 0.0887513
228.0, 0.0818078
230.0, 0.0747167
232.0, 0.0688721
234.0, 0.0690311
236.0, 0.064741
238.0, 0.0636442
240.0, 0.0600174
242.0, 0.0456106
244.0, 0.0372924
246.0, 0.0287947
248.0, 0.0328652
250.0, 0.0369041
252.0, 0.0357041
254.0, 0.00604226
256.0, 0.026807
258.0, 0.0340681
260.0, 0.025173
262.0, 0.033729
264.0, 0.0411321
266.0, 0.0277328
268.0, 0.0167754
270.0, 0.00841038
272.0, 0.0080883
274.0, 0.00201972
276.0, 0.00396623
278.0, 0.00739297
280.0, 0.0098494
282.0, 0.0085777
284.0, 0.0217651
286.0, 0.0331178
288.0, 0.0281221
290.0, 0.0386339
292.0, 0.0293779
294.0, 0.034621
296.0, 0.0433782
298.0, 0.0507839
300.0, 0.0315609
302.0, 0.0352091
304.0, 0.0395878
306.0, 0.0231896
308.0, 0.0228157
310.0, 0.0121447
312.0, 0.012365
314.0, 0.0145198
316.0, 0.00989916
318.0, 0.00183205
320.0, 0.00849921
322.0, 0.00341656
324.0, 0.0124316
326.0, 0.00279521
328.0, 0.00249987
330.0, 0.00248181
332.0, 0.00825231
334.0, 0.00230987
336.0, 0.0058629
338.0, 0.00526966
340.0, 0.0192161
342.0, 0.0174612
344.0, 0.015744
346.0, 0.0240258
348.0, 0.0293991
350.0, 0.0522398
352.0, 0.0678341
354.0, 0.0764782
356.0, 0.0654006
358.0, 0.0536911
360.0, 0.0283222
362.0, 0.0477593
364.0, 0.0371117
366.0, 0.0532225
368.0, 0.0590749
370.0, 0.0729047
372.0, 0.0909927
374.0, 0.10549
376.0, 0.122841
378.0, 0.140507
380.0, 0.177928
382.0, 0.200303
384.0, 0.214298
386.0, 0.241687
388.0, 0.255706
390.0, 0.239279
392.0, 0.250346
394.0, 0.201864
396.0, 0.152757
398.0, 0.124334
400.0, 0.0850723
402.0, 0.0603858
404.0, 0.0499796
406.0, 0.0271391
408.0, 0.00948789
410.0, 0.00950715
412.0, 0.000742867
414.0, 0.00385513
416.0, 0.000615557
418.0, 0.000304119
420.0, 0.00520205
422.0, 0.00498229
424.0, 0.00265609
426.0, 0.000690399
428.0, 0.00134491
430.0, 0.00263566
432.0, 0.00623757
434.0, 0.0086375
436.0, 0.0018124
438.0, 0.00723169
440.0, 0.0277414
442.0, 0.0306999
444.0, 0.0614337
446.0, 0.0795865
448.0, 0.130015
450.0, 0.199922
452.0, 0.273822
454.0, 0.395176
456.0, 0.523359
458.0, 0.689607
460.0, 0.829551
462.0, 0.977133
464.0, 0.997289
466.0, 0.847278
468.0, 0.615218
470.0, 0.424159
472.0, 0.325225
474.0, 0.249024
476.0, 0.189411
478.0, 0.169166
480.0, 0.117347
482.0, 0.100386
484.0, 0.0856024
486.0, 0.0812431
488.0, 0.0667623
490.0, 0.0532407
492.0, 0.0474819
494.0, 0.0461371
496.0, 0.0328291
498.0, 0.0315576
500.0, 0.0255074
502.0, 0.028133
504.0, 0.0201562
506.0, 0.0315513
508.0, 0.0315822
510.0, 0.0341799
512.0, 0.0430332
514.0, 0.0533658
516.0, 0.0199769
518.0, 0.0179313
520.0, 0.0164686
522.0, 0.0162003
524.0, 0.00460332
526.0, 0.0118025
528.0, 0.0101599
530.0, 0.00800697
532.0, 0.00295618
534.0, 0.0135277
536.0, 0.00396087
538.0, 0.0165342
540.0, 0.0107247
542.0, 0.0104375
544.0, 0.0052209
546.0, 0.0201404
548.0, 0.0439498
550.0, 0.0226498
552.0, 0.0511926
554.0, 0.0486392
556.0, 0.0589882
558.0, 0.0805632
560.0, 0.091551
562.0, 0.117924
564.0, 0.119848
566.0, 0.145024
568.0, 0.154347
570.0, 0.143291
572.0, 0.128717
574.0, 0.100316
576.0, 0.0775692
578.0, 0.0609517
580.0, 0.0468685
582.0, 0.047489
584.0, 0.0445164
586.0, 0.0251078
588.0, 0.0188276
590.0, 0.0204325
592.0, 0.0120196
594.0, 0.00971874
596.0, 0.0119701
598.0, 0.00146256
600.0, 0.00750672
602.0, 0.00158526
604.0, 0.0146697
606.0, 0.00355783
608.0, 0.00383548
610.0, 0.010368
612.0, 0.00786483
614.0, 0.00348892
616.0, 0.00159813
618.0, 0.00199939
620.0, 0.0260794
622.0, 0.0175345
624.0, 0.0153864
626.0, 0.0204994
628.0, 0.0297378
630.0, 0.0197873
632.0, 0.0325608
634.0, 0.0611353
636.0, 0.0701811
638.0, 0.0905532
640.0, 0.114334
642.0, 0.138373
644.0, 0.177746
646.0, 0.200981
648.0, 0.242668
650.0, 0.293333
652.0, 0.339343
654.0, 0.418115
656.0, 0.447852
658.0, 0.47964
660.0, 0.487502
662.0, 0.486186
664.0, 0.420914
666.0, 0.368808
668.0, 0.304135
670.0, 0.250507
672.0, 0.197793
674.0, 0.184251
676.0, 0.140799
678.0, 0.120087
680.0, 0.0943739
682.0, 0.0718226
684.0, 0.0618407
686.0, 0.0506762
688.0, 0.0430245
690.0, 0.0263776
692.0, 0.0351633
694.0, 0.0187964
696.0, 0.0184858
698.0, 0.0279808
700.0, 0.00886148
702.0, 0.0130153
704.0, 0.000528116
706.0, 0.00731921
708.0, 0.0095938
710.0, 0.0103989
712.0, 0.0087302
714.0, 0.00700544
716.0, 0.000955026
718.0, 0.0122213
720.0, 0.00204904
722.0, 0.0140194
724.0, 0.011884
726.0, 0.000971605
728.0, 0.000800549
730.0, 0.0206233
732.0, 0.0169805
734.0, 0.0174759
736.0, 0.0104055
738.0, 0.00919385
740.0, 0.00841249
742.0, 0.0337431
744.0, 0.0155128
746.0, 0.0222281
748.0, 0.0181679
750.0, 0.040678
752.0, 0.0210745
754.0, 0.0345714
756.0, 0.0332299
758.0, 0.046695
760.0, 0.0386105
762.0, 0.0463251
764.0, 0.0631147
766.0, 0.049023
768.0, 0.0386985
770.0, 0.0348648
772.0, 0.0344745
774.0, 0.0339862
776.0, 0.0392972
778.0, 0.0246787
780.0, 0.0295933
782.0, 0.0171388
784.0, 0.0122514
786.0, 0.0294909
788.0, 0.0224784
790.0, 0.021216
792.0, 0.027879
794.0, 0.0347924
796.0, 0.0388629
798.0, 0.023891
800.0, 0.0224314
802.0, 0.037556
804.0, 0.0339455
806.0, 0.0359696
808.0, 0.0319139
810.0, 0.0248402
812.0, 0.0091435
814.0, 0.0164658
816.0, 0.00465157
818.0, 0.00158947
820.0, 0.0144792
822.0, 0.00459146
824.0, 0.00411277
826.0, 0.00585048
828.0, 0.0163669
830.0, 0.0055123
832.0, 0.0122912
834.0, 0.00462214
836.0, 0.00653319
838.0, 0.00870122
840.0, 0.030363
842.0, 0.0167364
844.0, 0.00988371
846.0, 0.0107049
848.0, 0.0143976
850.0, 0.0113707
852.0, 0.026393
854.0, 0.022722
856.0, 0.00897332
858.0, 0.0228195
860.0, 0.0249207
862.0, 0.0141582
864.0, 0.023882
866.0, 0.034402
868.0, 0.052953
870.0, 0.0385076
872.0, 0.067308
874.0, 0.0920603
876.0, 0.147277
878.0, 0.160894
880.0, 0.221144
882.0, 0.321009
884.0, 0.426204
886.0, 0.565262
888.0, 0.685233
890.0, 0.809502
892.0, 0.890189
894.0, 0.891046
896.0, 0.784601
898.0, 0.617958
900.0, 0.445644
902.0, 0.311631
904.0, 0.233576
906.0, 0.152701
908.0, 0.124384
910.0, 0.0936876
912.0, 0.0773877
914.0, 0.0788021
916.0, 0.0628653
918.0, 0.0718018
920.0, 0.0554305
922.0, 0.0587193
924.0, 0.0478186
926.0, 0.0878999
928.0, 0.0821349
930.0, 0.0829366
932.0, 0.0850501
934.0, 0.0622646
936.0, 0.0274071
938.0, 0.0228377
940.0, 0.0181906
942.0, 0.0186126
944.0, 0.0118056
946.0, 0.00474076
948.0, 0.000961822
950.0, 0.0123326
952.0, 0.00167885
954.0, 0.00588087
956.0, 0.00768883
958.0, 0.00668775
960.0, 0.0146328
962.0, 0.00719555
964.0, 0.0255809
966.0, 0.0234887
968.0, 0.0119151
970.0, 0.0178524
972.0, 0.0201079
974.0, 0.030023
976.0, 0.0450677
978.0, 0.0287015
980.0, 0.0375299
982.0, 0.0497864
984.0, 0.056024
986.0, 0.0771836
988.0, 0.0895931
990.0, 0.0917439
992.0, 0.0952526
994.0, 0.119503
996.0, 0.0908983
998.0, 0.110488
1000.0, 0.106424
1002.0, 0.106328
1004.0, 0.0966743
1006.0, 0.0974367
1008.0, 0.0875869
1010.0, 0.0980683
1012.0, 0.0628983
1014.0, 0.0339144
1016.0, 0.0514719
1018.0, 0.0320181
1020.0, 0.0323763
1022.0, 0.041674
1024.0, 0.0261143
1026.0, 0.0188419
1028.0, 0.00409601
1030.0, 0.00862745
1032.0, 0.00622864
1034.0, 0.00293726
1036.0, 0.0173591
1038.0, 0.00356582
1040.0, 0.0158947
1042.0, 0.0183004
1044.0, 0.0128036
1046.0, 0.0172648
1048.0, 0.0132952
1050.0, 0.0301548
1052.0, 0.0105628
1054.0, 0.00748265
1056.0, 0.0166764
1058.0, 0.0309372
1060.0, 0.0145354
1062.0, 0.0288234
1064.0, 0.0134758
1066.0, 0.0189402
1068.0, 0.0161455
1070.0, 0.0206303
1072.0, 0.0226424
1074.0, 0.0450429
1076.0, 0.0237302
1078.0, 0.0422835
1080.0, 0.048466
1082.0, 0.0336129
1084.0, 0.0312632
1086.0, 0.0312349
1088.0, 0.0253923
1090.0, 0.0255115
1092.0, 0.0195119
1094.0, 0.0356321
1096.0, 0.0109665
1098.0, 0.00644698
1100.0, 0.00745098
1102.0, 0.00222814
1104.0, 0.0183054
1106.0, 0.00185388
1108.0, 0.0212826
1110.0, 0.00340054
1112.0, 0.0211539
1114.0, 0.0125149
1116.0, 0.0259183
1118.0, 0.00995287
1120.0, 0.0154266
1122.0, 0.00790162
1124.0, 0.0105194
1126.0, 0.0234455
1128.0, 0.0118608
1130.0, 0.021665
1132.0, 0.0159126
1134.0, 0.00610318
1136.0, 0.00506234
1138.0, 0.0124567
1140.0, 0.0044941
1142.0, 0.0115601
1144.0, 0.0253582
1146.0, 0.0132306
1148.0, 0.0129336
1150.0, 0.0237
1152.0, 0.0267274
1154.0, 0.03659
1156.0, 0.0371273
1158.0, 0.0490414
1160.0, 0.0352404
1162.0, 0.0376402
1164.0, 0.0280433
1166.0, 0.0274124
1168.0, 0.0284149
1170.0, 0.00646874
1172.0, 0.015355
1174.0, 0.0162833
1176.0, 0.0097636
1178.0, 0.00999398
1180.0, 0.0202749
1182.0, 0.000999102
1184.0, 0.000773461
1186.0, 0.0113451
1188.0, 0.00989565
1190.0, 0.0208884
1192.0, 0.00566388
1194.0, 0.0124134
1196.0, 0.0210427
1198.0, 0.00581418
1200.0, 0.0236335
1202.0, 0.0234816
1204.0, 0.00525083
1206.0, 0.0227536
1208.0, 0.0186784
1210.0, 0.0234687
1212.0, 0.00933739
1214.0, 0.020187
1216.0, 0.00983859
1218.0, 0.00569493
1220.0, 0.00236141
1222.0, 0.000694369
1224.0, 0.0110784
1226.0, 0.0286386
1228.0, 0.0131152
1230.0, 0.0143478
1232.0, 0.0150627
1234.0, 0.0457984
1236.0, 0.0185197
1238.0, 0.0243344
1240.0, 0.0274621
1242.0, 0.00827214
1244.0, 0.0340998
1246.0, 0.00241811
1248.0, 0.00728055
1250.0, 0.00955469
1252.0, 0.00203962
1254.0, 0.00728041
1256.0, 0.0296921
1258.0, 0.00675079
1260.0, 0.0103829
1262.0, 0.0126532
1264.0, 0.0166491
1266.0, 0.0114939
1268.0, 0.0121626
1270.0, 0.0138476
1272.0, 0.0134505
1274.0, 0.0267691
1276.0, 0.0128663
1278.0, 0.0240418
1280.0, 0.00822006
1282.0, 0.00910648
1284.0, 0.0170398
1286.0, 0.0183089
1288.0, 0.00618244
1290.0, 0.0118787
1292.0, 0.0178624
1294.0, 0.0057066
1296.0, 0.00990665
1298.0, 0.0132131
1300.0, 0.00890875
1302.0, 0.0143583
1304, 0.0
1306, 0.0
1308, 0.0
1310, 0.0
1312, 0.0
1314, 0.0
1316, 0.0
1318, 0.0
1320, 0.0
1322, 0.0
1324, 0.0
1326, 0.0
1328, 0.0
1330, 0.0
1332, 0.0
1334, 0.0
1336, 0.0
1338, 0.0
1340, 0.0
1342, 0.0
1344, 0.0
1346, 0.0
1348, 0.0
1350, 0.0
1352, 0.0
1354, 0.0
1356, 0.0
1358, 0.0
1360, 0.0
1362, 0.0
1364, 0.0
1366, 0.0
1368, 0.0
1370, 0.0
1372, 0.0
1374, 0.0
1376, 0.0
1378, 0.0
1380, 0.0
1382, 0.0
1384, 0.0
1386, 0.0
1388, 0.0
1390, 0.0
1392, 0.0
1394, 0.0
1396, 0.0
1398, 0.0
1400, 0.0
1402, 0.0
1404, 0.0
1406, 0.0
1408, 0.0
1410, 0.0
1412, 0.0
1414, 0.0
1416, 0.0
1418, 0.0
1420, 0.0
1422, 0.0
1424, 0.0
1426, 0.0
1428, 0.0
1430, 0.0
1432, 0.0
1434, 0.0
1436, 0.0
1438, 0.0
1440, 0.0
1442, 0.0
1444, 0.0
1446, 0.0
1448, 0.0
1450, 0.0
1452, 0.0
1454, 0.0
1456, 0.0
1458, 0.0
1460, 0.0
1462, 0.0
1464, 0.0
1466, 0.0
1468, 0.0
1470, 0.0
1472, 0.0
1474, 0.0
1476, 0.0
1478, 0.0
1480, 0.0
1482, 0.0
1484, 0.0
1486, 0.0
1488, 0.0
1490, 0.0
1492, 0.0
1494, 0.0
1496, 0.0
1498, 0.0
1500, 0.0
1502, 0.0
1504, 0.0
1506, 0.0
1508, 0.0
1510, 0.0
1512, 0.0
1514, 0.0
1516, 0.0
1518, 0.0
1520, 0.0
1522, 0.0
1524, 0.0
1526, 0.0
1528, 0.0
1530, 0.0
1532, 0.0
1534, 0.0
1536, 0.0
1538, 0.0
1540, 0.0
1542, 0.0
1544, 0.0
1546, 0.0
1548, 0.0
1550, 0.0
1552, 0.0
1554, 0.0
1556, 0.0
1558, 0.0
1560, 0.0
1562, 0.0
1564, 0.0
1566, 0.0
1568, 0.0
1570, 0.0
1572, 0.0
1574, 0.0
1576, 0.0
1578, 0.0
1580, 0.0
1582, 0.0
1584, 0.0
1586, 0.0
1588, 0.0
1590, 0.0
1592, 0.0
1594, 0.0
1596, 0.0
1598, 0.0
1599, 0.0