File: raw data/Dataset_2/Ferroericssonite/Ferroericssonite__R070406__Raman__785__0__unoriented__Raman_Data_Processed__21619.txt
30, 0.0
32, 0.0
34, 0.0
36, 0.0
38, 0.0
40, 0.0
42, 0.0
44, 0.0
46, 0.0
48, 0.0
50, 0.0
52, 0.0
54, 0.0
56, 0.0
58, 0.0
60, 0.0
62, 0.0
64, 0.0
66, 0.0
68, 0.0
70, 0.0
72, 0.0
74, 0.0
76, 0.0
78, 0.0
80, 0.0
82, 0.0
84, 0.0
86, 0.0
88, 0.0
90, 0.0
92, 0.0
94, 0.0
96, 0.0
98, 0.0
100, 0.0
102, 0.0
104, 0.0
106, 0.0
108, 0.0
110, 0.0
112, 0.0
114, 0.0
116, 0.0
118, 0.0
120, 0.0
122, 0.0
124, 0.0
126, 0.0
128, 0.0
130, 0.0
132, 0.0
134, 0.0
136, 0.0
138, 0.0
140, 0.0
142, 0.0
144, 0.0
146, 0.0
148, 0.0
150, 0.0
152, 0.0
154, 0.0
156, 0.0
158.0, 0.000939775
160.0, 0.00364947
162.0, 0.0241648
164.0, 0.0266804
166.0, 0.00936557
168.0, 0.00334708
170.0, 0.0269231
172.0, 0.0107609
174.0, 0.030526
176.0, 0.0337518
178.0, 0.0423436
180.0, 0.0578867
182.0, 0.0692065
184.0, 0.0975794
186.0, 0.119807
188.0, 0.154846
190.0, 0.174085
192.0, 0.182173
194.0, 0.177203
196.0, 0.187397
198.0, 0.181974
200.0, 0.18798
202.0, 0.18064
204.0, 0.181309
206.0, 0.182682
208.0, 0.15016
210.0, 0.13326
212.0, 0.115397
214.0, 0.105884
216.0, 0.102718
218.0, 0.0829391
220.0, 0.086861
222.0, 0.0821361
224.0, 0.0734979
226.0, 0.085325
228.0, 0.0760635
230.0, 0.0800656
232.0, 0.0932902
234.0, 0.101917
236.0, 0.0994837
238.0, 0.102189
240.0, 0.0980698
242.0, 0.0847865
244.0, 0.0690542
246.0, 0.0564201
248.0, 0.0520386
250.0, 0.035121
252.0, 0.0374001
254.0, 0.0244853
256.0, 0.0297269
258.0, 0.0212573
260.0, 0.0148858
262.0, 0.0311344
264.0, 0.0237098
266.0, 0.0189174
268.0, 0.00259287
270.0, 0.00158531
272.0, 0.00576303
274.0, 0.010145
276.0, 0.00723552
278.0, 0.00385891
280.0, 0.00921186
282.0, 0.00877348
284.0, 0.0200668
286.0, 0.02071
288.0, 0.0273697
290.0, 0.0332841
292.0, 0.0366531
294.0, 0.0405735
296.0, 0.0376214
298.0, 0.0527023
300.0, 0.0568742
302.0, 0.0545407
304.0, 0.0713822
306.0, 0.0550585
308.0, 0.0594701
310.0, 0.0495204
312.0, 0.0468586
314.0, 0.0357534
316.0, 0.0282331
318.0, 0.0221691
320.0, 0.020429
322.0, 0.0109757
324.0, 0.0119594
326.0, 0.0170776
328.0, 0.00350655
330.0, 0.000972864
332.0, 0.000542631
334.0, 0.00106425
336.0, 0.000811565
338.0, 0.00924089
340.0, 0.00650017
342.0, 0.00061938
344.0, 0.00511052
346.0, 0.00886577
348.0, 0.0269084
350.0, 0.0372134
352.0, 0.0537898
354.0, 0.0680335
356.0, 0.0688626
358.0, 0.0652079
360.0, 0.0627524
362.0, 0.0592794
364.0, 0.0691849
366.0, 0.0733954
368.0, 0.0885156
370.0, 0.0888284
372.0, 0.101888
374.0, 0.116185
376.0, 0.124283
378.0, 0.147779
380.0, 0.172603
382.0, 0.19726
384.0, 0.206967
386.0, 0.230936
388.0, 0.261199
390.0, 0.280223
392.0, 0.286696
394.0, 0.269523
396.0, 0.22756
398.0, 0.166522
400.0, 0.134494
402.0, 0.103853
404.0, 0.0761669
406.0, 0.0495513
408.0, 0.0364311
410.0, 0.0207095
412.0, 0.0259175
414.0, 0.0207496
416.0, 0.0142234
418.0, 0.0184028
420.0, 0.020448
422.0, 0.0121308
424.0, 0.0105473
426.0, 0.0194246
428.0, 0.00868079
430.0, 0.000567889
432.0, 0.00330604
434.0, 0.000230733
436.0, 0.0149245
438.0, 0.00144324
440.0, 0.00702486
442.0, 0.0211253
444.0, 0.0314192
446.0, 0.0496576
448.0, 0.0801204
450.0, 0.131259
452.0, 0.17092
454.0, 0.231031
456.0, 0.308217
458.0, 0.425466
460.0, 0.552215
462.0, 0.690069
464.0, 0.735373
466.0, 0.668695
468.0, 0.531111
470.0, 0.387118
472.0, 0.296
474.0, 0.251143
476.0, 0.196291
478.0, 0.166483
480.0, 0.13469
482.0, 0.102672
484.0, 0.0831881
486.0, 0.066562
488.0, 0.0575356
490.0, 0.0518572
492.0, 0.0351746
494.0, 0.0339
496.0, 0.033986
498.0, 0.0206358
500.0, 0.0223721
502.0, 0.0154721
504.0, 0.0133228
506.0, 0.0152565
508.0, 0.00193859
510.0, 0.00795606
512.0, 0.0129881
514.0, 0.00626145
516.0, 0.00773819
518.0, 0.00153407
520.0, 0.00179957
522.0, 0.00512365
524.0, 0.000114383
526.0, 0.00258334
528.0, 0.00236282
530.0, 0.0101044
532.0, 0.00304541
534.0, 0.00431897
536.0, 0.00138757
538.0, 0.000720584
540.0, 0.00503281
542.0, 0.00607204
544.0, 0.00529476
546.0, 0.00710079
548.0, 0.00225883
550.0, 0.00823163
552.0, 0.00780973
554.0, 0.0117263
556.0, 0.0127709
558.0, 0.0288215
560.0, 0.0414814
562.0, 0.0537999
564.0, 0.0636484
566.0, 0.0964867
568.0, 0.102218
570.0, 0.115486
572.0, 0.113568
574.0, 0.0936884
576.0, 0.0667113
578.0, 0.046216
580.0, 0.0341456
582.0, 0.0217801
584.0, 0.0120906
586.0, 0.00708477
588.0, 0.00719406
590.0, 0.000772169
592.0, 0.00256709
594.0, 0.00202348
596.0, 0.000446508
598.0, 0.00441849
600.0, 0.00239614
602.0, 0.00290163
604.0, 0.00412474
606.0, 0.00199357
608.0, 0.0158619
610.0, 0.0184661
612.0, 0.0177625
614.0, 0.0324833
616.0, 0.0551251
618.0, 0.0533595
620.0, 0.0760791
622.0, 0.0700596
624.0, 0.0978974
626.0, 0.120095
628.0, 0.140119
630.0, 0.152853
632.0, 0.160944
634.0, 0.168758
636.0, 0.177227
638.0, 0.181994
640.0, 0.209248
642.0, 0.256903
644.0, 0.277257
646.0, 0.320153
648.0, 0.370499
650.0, 0.452611
652.0, 0.543094
654.0, 0.665819
656.0, 0.771659
658.0, 0.878173
660.0, 0.967663
662.0, 0.994651
664.0, 0.950585
666.0, 0.849085
668.0, 0.727754
670.0, 0.616329
672.0, 0.496339
674.0, 0.405228
676.0, 0.328688
678.0, 0.266083
680.0, 0.202533
682.0, 0.157403
684.0, 0.131583
686.0, 0.10817
688.0, 0.0813563
690.0, 0.0647617
692.0, 0.0688922
694.0, 0.0599776
696.0, 0.0396678
698.0, 0.0379903
700.0, 0.022089
702.0, 0.0310287
704.0, 0.0135122
706.0, 0.0159379
708.0, 0.0255216
710.0, 0.0109649
712.0, 0.0123846
714.0, 0.00524478
716.0, 0.0102864
718.0, 0.0105798
720.0, 0.00229605
722.0, 0.00695346
724.0, 0.00813221
726.0, 0.00392752
728.0, 0.00411456
730.0, 0.00347658
732.0, 0.00254675
734.0, 0.0063165
736.0, 0.00599155
738.0, 0.000453374
740.0, 0.0106081
742.0, 0.00236026
744.0, 0.00077346
746.0, 0.0127774
748.0, 0.00573136
750.0, 0.00968914
752.0, 0.001462
754.0, 0.00137558
756.0, 0.000813109
758.0, 0.00380524
760.0, 0.00374544
762.0, 0.00205087
764.0, 0.00181257
766.0, 0.00161887
768.0, 0.00561527
770.0, 0.00173389
772.0, 0.00415962
774.0, 0.009847
776.0, 0.00270402
778.0, 0.00141118
780.0, 0.0161443
782.0, 0.00108139
784.0, 0.0145809
786.0, 0.0144435
788.0, 0.0141465
790.0, 0.0211835
792.0, 0.0338172
794.0, 0.0359705
796.0, 0.0269559
798.0, 0.0332273
800.0, 0.0300122
802.0, 0.0370026
804.0, 0.0283644
806.0, 0.0240811
808.0, 0.0277799
810.0, 0.0295917
812.0, 0.014058
814.0, 0.0075481
816.0, 0.0192734
818.0, 0.0192658
820.0, 0.0168639
822.0, 0.0196407
824.0, 0.0129543
826.0, 0.0104527
828.0, 0.0220852
830.0, 0.0121574
832.0, 0.0134654
834.0, 0.00080445
836.0, 0.00724572
838.0, 0.00413321
840.0, 0.00302012
842.0, 0.00428553
844.0, 0.00639136
846.0, 0.00523491
848.0, 0.00843006
850.0, 0.00260399
852.0, 0.00598683
854.0, 0.00327751
856.0, 0.00531885
858.0, 0.00309113
860.0, 0.00408185
862.0, 0.00492195
864.0, 0.00122142
866.0, 0.0117309
868.0, 0.0114985
870.0, 0.0156714
872.0, 0.0154679
874.0, 0.027117
876.0, 0.0368401
878.0, 0.0471996
880.0, 0.0598832
882.0, 0.0769797
884.0, 0.127384
886.0, 0.181001
888.0, 0.22602
890.0, 0.308139
892.0, 0.397154
894.0, 0.451192
896.0, 0.44424
898.0, 0.383262
900.0, 0.294679
902.0, 0.207045
904.0, 0.146226
906.0, 0.106033
908.0, 0.0869438
910.0, 0.0735445
912.0, 0.063519
914.0, 0.0666938
916.0, 0.0623228
918.0, 0.0695413
920.0, 0.0719137
922.0, 0.0718609
924.0, 0.0833994
926.0, 0.104277
928.0, 0.114471
930.0, 0.138189
932.0, 0.135188
934.0, 0.109227
936.0, 0.102394
938.0, 0.0748496
940.0, 0.0626344
942.0, 0.0404786
944.0, 0.0284653
946.0, 0.0305884
948.0, 0.0353365
950.0, 0.0096244
952.0, 0.00840295
954.0, 0.00663519
956.0, 0.00414654
958.0, 0.0013108
960.0, 0.00504821
962.0, 0.00415699
964.0, 0.00289986
966.0, 0.00419531
968.0, 0.0036003
970.0, 0.00211902
972.0, 0.000674881
974.0, 0.00554585
976.0, 0.00704131
978.0, 0.00136148
980.0, 0.00681195
982.0, 0.00649663
984.0, 0.015353
986.0, 0.0230093
988.0, 0.0258501
990.0, 0.0224157
992.0, 0.0200617
994.0, 0.0236243
996.0, 0.0148143
998.0, 0.0290713
1000.0, 0.0268912
1002.0, 0.0373925
1004.0, 0.0418264
1006.0, 0.0252123
1008.0, 0.0186355
1010.0, 0.030486
1012.0, 0.0231369
1014.0, 0.0210577
1016.0, 0.0242189
1018.0, 0.0409178
1020.0, 0.0205139
1022.0, 0.0306587
1024.0, 0.025953
1026.0, 0.0333179
1028.0, 0.0216702
1030.0, 0.0148344
1032.0, 0.00631235
1034.0, 0.0105472
1036.0, 0.00632846
1038.0, 0.00784727
1040.0, 0.00207164
1042.0, 0.00518319
1044.0, 0.00467593
1046.0, 0.00843658
1048.0, 0.00492337
1050.0, 0.0137717
1052.0, 0.00761523
1054.0, 0.0108344
1056.0, 0.0108513
1058.0, 0.0140256
1060.0, 0.00640128
1062.0, 0.00380737
1064.0, 0.0137766
1066.0, 0.00312464
1068.0, 0.000343245
1070.0, 0.0079052
1072.0, 0.00507516
1074.0, 0.0117974
1076.0, 0.00948856
1078.0, 0.00809716
1080.0, 0.0182632
1082.0, 0.0131058
1084.0, 0.00660827
1086.0, 0.00846223
1088.0, 0.00598117
1090.0, 0.00576544
1092.0, 0.00645814
1094.0, 0.0108051
1096.0, 0.00672978
1098.0, 0.0200961
1100.0, 0.0138401
1102.0, 0.00822301
1104.0, 0.015662
1106.0, 0.0159619
1108.0, 0.00778552
1110.0, 0.00610438
1112.0, 0.0141843
1114.0, 0.0102751
1116.0, 0.0198968
1118.0, 0.017086
1120.0, 0.0141754
1122.0, 0.0306336
1124.0, 0.0204581
1126.0, 0.0161254
1128.0, 0.0272616
1130.0, 0.0236652
1132.0, 0.0275218
1134.0, 0.0300332
1136.0, 0.0217696
1138.0, 0.0130732
1140.0, 0.0162615
1142.0, 0.0207807
1144.0, 0.00902374
1146.0, 0.0161464
1148.0, 0.00153175
1150.0, 0.00898976
1152.0, 0.0100031
1154.0, 0.00275501
1156.0, 0.00305997
1158.0, 0.0177989
1160.0, 0.00805398
1162.0, 0.00199068
1164.0, 0.0136713
1166.0, 0.0108512
1168.0, 0.0101965
1170.0, 0.00518926
1172.0, 0.00239805
1174.0, 0.00373566
1176.0, 0.000402436
1178.0, 0.0110762
1180.0, 0.00570074
1182.0, 0.0182194
1184.0, 0.0104772
1186.0, 0.0199122
1188.0, 0.00617282
1190.0, 0.00379392
1192.0, 0.00913904
1194.0, 0.01585
1196.0, 0.0194546
1198.0, 0.0185674
1200.0, 0.00539083
1202.0, 0.0088176
1204.0, 0.0097534
1206.0, 0.0115603
1208.0, 0.00879613
1210.0, 0.0127868
1212.0, 0.00899743
1214.0, 0.00831127
1216.0, 0.00732709
1218.0, 0.00968035
1220.0, 0.00282192
1222.0, 0.00349339
1224.0, 0.000199733
1226, 0.0
1228, 0.0
1230, 0.0
1232, 0.0
1234, 0.0
1236, 0.0
1238, 0.0
1240, 0.0
1242, 0.0
1244, 0.0
1246, 0.0
1248, 0.0
1250, 0.0
1252, 0.0
1254, 0.0
1256, 0.0
1258, 0.0
1260, 0.0
1262, 0.0
1264, 0.0
1266, 0.0
1268, 0.0
1270, 0.0
1272, 0.0
1274, 0.0
1276, 0.0
1278, 0.0
1280, 0.0
1282, 0.0
1284, 0.0
1286, 0.0
1288, 0.0
1290, 0.0
1292, 0.0
1294, 0.0
1296, 0.0
1298, 0.0
1300, 0.0
1302, 0.0
1304, 0.0
1306, 0.0
1308, 0.0
1310, 0.0
1312, 0.0
1314, 0.0
1316, 0.0
1318, 0.0
1320, 0.0
1322, 0.0
1324, 0.0
1326, 0.0
1328, 0.0
1330, 0.0
1332, 0.0
1334, 0.0
1336, 0.0
1338, 0.0
1340, 0.0
1342, 0.0
1344, 0.0
1346, 0.0
1348, 0.0
1350, 0.0
1352, 0.0
1354, 0.0
1356, 0.0
1358, 0.0
1360, 0.0
1362, 0.0
1364, 0.0
1366, 0.0
1368, 0.0
1370, 0.0
1372, 0.0
1374, 0.0
1376, 0.0
1378, 0.0
1380, 0.0
1382, 0.0
1384, 0.0
1386, 0.0
1388, 0.0
1390, 0.0
1392, 0.0
1394, 0.0
1396, 0.0
1398, 0.0
1400, 0.0
1402, 0.0
1404, 0.0
1406, 0.0
1408, 0.0
1410, 0.0
1412, 0.0
1414, 0.0
1416, 0.0
1418, 0.0
1420, 0.0
1422, 0.0
1424, 0.0
1426, 0.0
1428, 0.0
1430, 0.0
1432, 0.0
1434, 0.0
1436, 0.0
1438, 0.0
1440, 0.0
1442, 0.0
1444, 0.0
1446, 0.0
1448, 0.0
1450, 0.0
1452, 0.0
1454, 0.0
1456, 0.0
1458, 0.0
1460, 0.0
1462, 0.0
1464, 0.0
1466, 0.0
1468, 0.0
1470, 0.0
1472, 0.0
1474, 0.0
1476, 0.0
1478, 0.0
1480, 0.0
1482, 0.0
1484, 0.0
1486, 0.0
1488, 0.0
1490, 0.0
1492, 0.0
1494, 0.0
1496, 0.0
1498, 0.0
1500, 0.0
1502, 0.0
1504, 0.0
1506, 0.0
1508, 0.0
1510, 0.0
1512, 0.0
1514, 0.0
1516, 0.0
1518, 0.0
1520, 0.0
1522, 0.0
1524, 0.0
1526, 0.0
1528, 0.0
1530, 0.0
1532, 0.0
1534, 0.0
1536, 0.0
1538, 0.0
1540, 0.0
1542, 0.0
1544, 0.0
1546, 0.0
1548, 0.0
1550, 0.0
1552, 0.0
1554, 0.0
1556, 0.0
1558, 0.0
1560, 0.0
1562, 0.0
1564, 0.0
1566, 0.0
1568, 0.0
1570, 0.0
1572, 0.0
1574, 0.0
1576, 0.0
1578, 0.0
1580, 0.0
1582, 0.0
1584, 0.0
1586, 0.0
1588, 0.0
1590, 0.0
1592, 0.0
1594, 0.0
1596, 0.0
1598, 0.0
1599, 0.0