File: raw data/Dataset_2/Brassite/Brassite__R060042__Raman__532__0__unoriented__Raman_Data_Processed__26879.txt
30, 0.0
32, 0.0
34, 0.0
36, 0.0
38, 0.0
40, 0.0
42, 0.0
44, 0.0
46, 0.0
48, 0.0
50, 0.0
52, 0.0
54, 0.0
56, 0.0
58, 0.0
60, 0.0
62, 0.0
64, 0.0
66, 0.0
68, 0.0
70, 0.0
72, 0.0
74, 0.0
76, 0.0
78, 0.0
80, 0.0
82, 0.0
84, 0.0
86, 0.0
88, 0.0
90, 0.0
92, 0.0
94, 0.0
96, 0.0
98, 0.0
100, 0.0
102, 0.0
104, 0.0
106, 0.0
108, 0.0
110, 0.0
112, 0.0
114, 0.0
116, 0.0
118, 0.0
120, 0.0
122, 0.0
124, 0.0
126, 0.0
128, 0.0
130, 0.0
132, 0.0
134, 0.0
136, 0.0
138, 0.0
140, 0.0
142, 0.0
144, 0.0
146, 0.0
148, 0.0
150, 0.0
152, 0.0
154, 0.0
156, 0.0
158, 0.0
160, 0.0
162, 0.0
164.0, 0.000128372
166.0, 0.00338662
168.0, 0.00651822
170.0, 0.00257066
172.0, 0.00338376
174.0, 0.0101129
176.0, 0.0193671
178.0, 0.0290122
180.0, 0.0350477
182.0, 0.0375672
184.0, 0.0315979
186.0, 0.0309061
188.0, 0.0303458
190.0, 0.0301501
192.0, 0.0283456
194.0, 0.0301531
196.0, 0.0396894
198.0, 0.0394778
200.0, 0.0374433
202.0, 0.0360343
204.0, 0.0252265
206.0, 0.0223382
208.0, 0.0121655
210.0, 0.0139343
212.0, 0.00444347
214.0, 0.00323028
216.0, 0.00200967
218.0, 0.00314274
220.0, 0.00174626
222.0, 0.00140812
224.0, 9.02818e-05
226.0, 0.000459072
228.0, 0.00189839
230.0, 0.00118901
232.0, 0.00214974
234.0, 0.00460814
236.0, 0.00889209
238.0, 0.0186434
240.0, 0.0186252
242.0, 0.0258909
244.0, 0.0266368
246.0, 0.0261995
248.0, 0.0330955
250.0, 0.0248248
252.0, 0.0141963
254.0, 0.0162413
256.0, 0.0213879
258.0, 0.0251972
260.0, 0.0274243
262.0, 0.0379127
264.0, 0.0320615
266.0, 0.0406147
268.0, 0.043176
270.0, 0.0513746
272.0, 0.0601657
274.0, 0.0583097
276.0, 0.0606152
278.0, 0.0577161
280.0, 0.0587116
282.0, 0.0571743
284.0, 0.0669894
286.0, 0.0750726
288.0, 0.0792067
290.0, 0.0889089
292.0, 0.105634
294.0, 0.107222
296.0, 0.105902
298.0, 0.0979972
300.0, 0.0882514
302.0, 0.0833814
304.0, 0.0709192
306.0, 0.0588119
308.0, 0.0469305
310.0, 0.0228604
312.0, 0.0172565
314.0, 0.00749745
316.0, 0.00537723
318.0, 0.00709528
320.0, 0.00135369
322.0, 0.000425406
324.0, 0.000306977
326.0, 0.00374787
328.0, 0.00766633
330.0, 0.0156281
332.0, 0.00980411
334.0, 0.00915395
336.0, 0.00708716
338.0, 0.00493713
340.0, 0.00171291
342.0, 0.00749318
344.0, 0.00271354
346.0, 0.000858835
348.0, 0.00251324
350.0, 0.00250099
352.0, 0.0015189
354.0, 0.00506415
356.0, 0.000578726
358.0, 0.00889445
360.0, 0.0149314
362.0, 0.00626682
364.0, 0.0186659
366.0, 0.0220984
368.0, 0.0280685
370.0, 0.0463186
372.0, 0.0582648
374.0, 0.0723951
376.0, 0.0818262
378.0, 0.0899021
380.0, 0.103836
382.0, 0.118091
384.0, 0.138182
386.0, 0.148853
388.0, 0.159551
390.0, 0.166129
392.0, 0.165397
394.0, 0.167674
396.0, 0.163281
398.0, 0.152744
400.0, 0.161629
402.0, 0.16032
404.0, 0.153164
406.0, 0.151505
408.0, 0.142685
410.0, 0.135469
412.0, 0.127061
414.0, 0.116079
416.0, 0.108119
418.0, 0.0998634
420.0, 0.0813856
422.0, 0.0724032
424.0, 0.0691291
426.0, 0.0680401
428.0, 0.067395
430.0, 0.0599271
432.0, 0.0673518
434.0, 0.0574285
436.0, 0.0469873
438.0, 0.0419266
440.0, 0.0414475
442.0, 0.0462847
444.0, 0.0434742
446.0, 0.0503528
448.0, 0.0390598
450.0, 0.0423817
452.0, 0.0380568
454.0, 0.0364244
456.0, 0.0327707
458.0, 0.025014
460.0, 0.0232504
462.0, 0.0176462
464.0, 0.0112023
466.0, 0.0153384
468.0, 0.0109794
470.0, 0.00613075
472.0, 0.00317015
474.0, 0.00589391
476.0, 0.000102671
478.0, 6.2104e-05
480.0, 0.00638853
482.0, 0.00308079
484.0, 0.00207212
486.0, 0.00112758
488.0, 0.000764702
490.0, 0.00252746
492.0, 0.00164359
494.0, 0.000479728
496.0, 0.000360146
498.0, 0.00328476
500.0, 0.00996777
502.0, 0.014436
504.0, 0.0169914
506.0, 0.0155577
508.0, 0.0106034
510.0, 0.012504
512.0, 0.0121137
514.0, 0.0214312
516.0, 0.0142004
518.0, 0.020187
520.0, 0.0121928
522.0, 0.0212681
524.0, 0.0158869
526.0, 0.0171055
528.0, 0.0177961
530.0, 0.0219448
532.0, 0.0217888
534.0, 0.0216591
536.0, 0.0313854
538.0, 0.0267558
540.0, 0.0196169
542.0, 0.0200683
544.0, 0.0252896
546.0, 0.0286487
548.0, 0.0314091
550.0, 0.0289001
552.0, 0.0244326
554.0, 0.0205807
556.0, 0.0187916
558.0, 0.0250036
560.0, 0.0248911
562.0, 0.0279872
564.0, 0.0324482
566.0, 0.0334055
568.0, 0.0252762
570.0, 0.0304695
572.0, 0.0309615
574.0, 0.0357797
576.0, 0.0367095
578.0, 0.0387843
580.0, 0.041045
582.0, 0.0358722
584.0, 0.0368871
586.0, 0.0379487
588.0, 0.0336477
590.0, 0.0404629
592.0, 0.030916
594.0, 0.0336403
596.0, 0.0302476
598.0, 0.0324549
600.0, 0.0312116
602.0, 0.0326146
604.0, 0.0288087
606.0, 0.0212458
608.0, 0.0190715
610.0, 0.0134635
612.0, 0.0126549
614.0, 0.0132444
616.0, 0.0183832
618.0, 0.0157704
620.0, 0.011415
622.0, 0.0131354
624.0, 0.00285712
626.0, 0.00778935
628.0, 0.00896543
630.0, 0.00759014
632.0, 0.00578974
634.0, 0.0105066
636.0, 0.0018297
638.0, 0.0026384
640.0, 0.00431836
642.0, 0.00492861
644.0, 0.00203562
646.0, 0.00190773
648.0, 0.00433549
650.0, 0.000523302
652.0, 0.0035759
654.0, 0.000929852
656.0, 0.000215453
658.0, 0.00419265
660.0, 0.000480429
662.0, 0.00877161
664.0, 0.00950932
666.0, 0.00659866
668.0, 0.0111174
670.0, 0.00426323
672.0, 0.0180974
674.0, 0.0259366
676.0, 0.0290643
678.0, 0.0422845
680.0, 0.0494894
682.0, 0.0603979
684.0, 0.065804
686.0, 0.0725828
688.0, 0.0783147
690.0, 0.0902887
692.0, 0.101521
694.0, 0.108684
696.0, 0.113947
698.0, 0.11126
700.0, 0.109448
702.0, 0.108097
704.0, 0.110328
706.0, 0.108856
708.0, 0.104321
710.0, 0.0964208
712.0, 0.0927275
714.0, 0.0819518
716.0, 0.0774856
718.0, 0.0701967
720.0, 0.0690859
722.0, 0.0606671
724.0, 0.0532126
726.0, 0.0471924
728.0, 0.0378438
730.0, 0.0267118
732.0, 0.0250771
734.0, 0.0124416
736.0, 0.0105802
738.0, 0.00686048
740.0, 0.00879083
742.0, 0.0077051
744.0, 0.00505061
746.0, 0.00396561
748.0, 0.00261567
750.0, 0.00506154
752.0, 0.0101891
754.0, 0.0043118
756.0, 0.0054154
758.0, 0.0113678
760.0, 0.0118376
762.0, 0.00692917
764.0, 0.000217628
766.0, 0.00629899
768.0, 0.00861391
770.0, 0.0173863
772.0, 0.0273661
774.0, 0.0433154
776.0, 0.0660408
778.0, 0.081125
780.0, 0.102684
782.0, 0.132399
784.0, 0.168556
786.0, 0.217823
788.0, 0.257516
790.0, 0.319221
792.0, 0.385314
794.0, 0.468043
796.0, 0.561917
798.0, 0.655544
800.0, 0.747281
802.0, 0.837615
804.0, 0.92018
806.0, 0.982229
808.0, 0.999533
810.0, 0.981151
812.0, 0.915658
814.0, 0.814707
816.0, 0.710059
818.0, 0.600752
820.0, 0.508998
822.0, 0.416482
824.0, 0.358112
826.0, 0.298444
828.0, 0.241756
830.0, 0.205364
832.0, 0.170408
834.0, 0.157142
836.0, 0.133452
838.0, 0.125722
840.0, 0.121087
842.0, 0.11891
844.0, 0.128136
846.0, 0.136729
848.0, 0.153781
850.0, 0.175388
852.0, 0.212086
854.0, 0.248287
856.0, 0.296505
858.0, 0.344022
860.0, 0.376745
862.0, 0.399294
864.0, 0.396679
866.0, 0.382457
868.0, 0.351675
870.0, 0.318784
872.0, 0.278624
874.0, 0.255178
876.0, 0.224997
878.0, 0.201171
880.0, 0.183253
882.0, 0.160957
884.0, 0.137285
886.0, 0.126411
888.0, 0.105296
890.0, 0.0864424
892.0, 0.0729479
894.0, 0.0528766
896.0, 0.0458408
898.0, 0.0335719
900.0, 0.0220024
902.0, 0.0203089
904.0, 0.016418
906.0, 0.0141756
908.0, 0.00286528
910.0, 0.00372405
912.0, 0.000471235
914.0, 0.00506639
916.0, 0.00293358
918.0, 0.000341816
920.0, 0.00347549
922.0, 0.00320288
924.0, 0.000759018
926.0, 0.00372497
928.0, 0.00213119
930.0, 0.00530979
932.0, 0.00211172
934.0, 0.00221406
936.0, 0.00510876
938.0, 0.00191507
940.0, 0.00542528
942.0, 0.00193109
944.0, 0.00121455
946.0, 0.000866408
948.0, 0.00202396
950.0, 0.0017802
952.0, 0.00105085
954.0, 0.00249144
956.0, 0.00924201
958.0, 0.00430982
960.0, 0.0104468
962.0, 0.00895308
964.0, 0.010259
966.0, 0.00860928
968.0, 0.009866
970.0, 0.0109517
972.0, 0.0228569
974.0, 0.0264184
976.0, 0.0242583
978.0, 0.0173555
980.0, 0.0133647
982.0, 0.0169968
984.0, 0.022234
986.0, 0.0229024
988.0, 0.0254971
990.0, 0.0228928
992.0, 0.0196515
994.0, 0.019063
996.0, 0.0158257
998.0, 0.0182349
1000.0, 0.0164684
1002.0, 0.0152066
1004.0, 0.0254669
1006.0, 0.0173457
1008.0, 0.0154171
1010.0, 0.0144849
1012.0, 0.0158218
1014.0, 0.0153912
1016.0, 0.020031
1018.0, 0.0233687
1020.0, 0.0190287
1022.0, 0.0166208
1024.0, 0.0124076
1026.0, 0.00431978
1028.0, 0.00542881
1030.0, 0.00938451
1032.0, 0.0177828
1034.0, 0.011791
1036.0, 0.00703802
1038.0, 0.0148921
1040.0, 0.00773423
1042.0, 0.00269264
1044.0, 0.00853962
1046.0, 0.00844549
1048.0, 0.0123589
1050.0, 0.00920313
1052.0, 0.00726404
1054.0, 0.0035306
1056.0, 0.00762445
1058.0, 0.00495018
1060.0, 0.00940237
1062.0, 0.00453233
1064.0, 0.00463687
1066.0, 0.011036
1068.0, 0.00515416
1070.0, 0.00151131
1072.0, 0.00315287
1074.0, 0.0056946
1076.0, 0.00373084
1078.0, 0.0142434
1080.0, 0.0117742
1082.0, 0.000489224
1084.0, 0.0042145
1086.0, 0.00849146
1088.0, 0.00864518
1090.0, 0.00402752
1092.0, 0.0101668
1094.0, 0.00943532
1096.0, 0.0112663
1098.0, 0.0101449
1100.0, 0.0114171
1102.0, 0.00596941
1104.0, 0.0139714
1106.0, 0.00842645
1108.0, 0.00969833
1110.0, 0.0104253
1112.0, 0.0101128
1114.0, 0.0104016
1116.0, 0.00563728
1118.0, 0.00646762
1120.0, 0.0113918
1122.0, 0.0135223
1124.0, 0.0109829
1126.0, 0.00813201
1128.0, 0.0021625
1130.0, 0.0101111
1132.0, 0.00435256
1134.0, 0.00411468
1136.0, 0.00705656
1138.0, 0.00757472
1140.0, 0.0085571
1142.0, 0.00499461
1144.0, 0.0107165
1146.0, 0.0127037
1148.0, 0.00629192
1150.0, 0.0126211
1152.0, 0.0214488
1154.0, 0.0096623
1156.0, 0.0131185
1158.0, 0.00677135
1160.0, 0.00753376
1162.0, 0.00775537
1164.0, 0.00591516
1166.0, 0.00444189
1168.0, 0.0081294
1170.0, 0.00854878
1172.0, 0.00894795
1174.0, 0.00960398
1176.0, 0.00696505
1178.0, 0.00630413
1180.0, 0.0100947
1182.0, 0.00622103
1184.0, 0.0111764
1186.0, 0.00480197
1188.0, 0.00165732
1190.0, 0.00380853
1192.0, 0.00358621
1194.0, 0.00452924
1196.0, 0.00766496
1198.0, 0.00543921
1200.0, 0.00901588
1202.0, 0.00755881
1204.0, 0.0106657
1206.0, 0.0129595
1208.0, 0.00782346
1210.0, 0.00769624
1212.0, 0.00332159
1214.0, 0.00223545
1216.0, 0.00725169
1218.0, 0.00856973
1220.0, 0.00974589
1222.0, 0.0143318
1224.0, 0.0106846
1226.0, 0.0130175
1228.0, 0.0156275
1230.0, 0.00964665
1232.0, 0.00884859
1234.0, 0.0164363
1236.0, 0.0179765
1238.0, 0.0113737
1240.0, 0.0128306
1242.0, 0.00519335
1244.0, 0.00954518
1246.0, 0.00981375
1248.0, 0.00734123
1250.0, 0.0129521
1252.0, 0.00329933
1254.0, 0.0143365
1256.0, 0.00777812
1258.0, 0.00328085
1260.0, 0.00441673
1262.0, 0.00931161
1264.0, 0.00641291
1266.0, 0.00781019
1268.0, 0.00319699
1270.0, 0.00770356
1272.0, 0.0177274
1274.0, 0.011301
1276.0, 0.00762142
1278.0, 0.00885947
1280.0, 0.000979322
1282.0, 0.0024382
1284.0, 0.00798105
1286.0, 0.00731332
1288.0, 0.000190447
1290.0, 0.00033628
1292, 0.0
1294, 0.0
1296, 0.0
1298, 0.0
1300, 0.0
1302, 0.0
1304, 0.0
1306, 0.0
1308, 0.0
1310, 0.0
1312, 0.0
1314, 0.0
1316, 0.0
1318, 0.0
1320, 0.0
1322, 0.0
1324, 0.0
1326, 0.0
1328, 0.0
1330, 0.0
1332, 0.0
1334, 0.0
1336, 0.0
1338, 0.0
1340, 0.0
1342, 0.0
1344, 0.0
1346, 0.0
1348, 0.0
1350, 0.0
1352, 0.0
1354, 0.0
1356, 0.0
1358, 0.0
1360, 0.0
1362, 0.0
1364, 0.0
1366, 0.0
1368, 0.0
1370, 0.0
1372, 0.0
1374, 0.0
1376, 0.0
1378, 0.0
1380, 0.0
1382, 0.0
1384, 0.0
1386, 0.0
1388, 0.0
1390, 0.0
1392, 0.0
1394, 0.0
1396, 0.0
1398, 0.0
1400, 0.0
1402, 0.0
1404, 0.0
1406, 0.0
1408, 0.0
1410, 0.0
1412, 0.0
1414, 0.0
1416, 0.0
1418, 0.0
1420, 0.0
1422, 0.0
1424, 0.0
1426, 0.0
1428, 0.0
1430, 0.0
1432, 0.0
1434, 0.0
1436, 0.0
1438, 0.0
1440, 0.0
1442, 0.0
1444, 0.0
1446, 0.0
1448, 0.0
1450, 0.0
1452, 0.0
1454, 0.0
1456, 0.0
1458, 0.0
1460, 0.0
1462, 0.0
1464, 0.0
1466, 0.0
1468, 0.0
1470, 0.0
1472, 0.0
1474, 0.0
1476, 0.0
1478, 0.0
1480, 0.0
1482, 0.0
1484, 0.0
1486, 0.0
1488, 0.0
1490, 0.0
1492, 0.0
1494, 0.0
1496, 0.0
1498, 0.0
1500, 0.0
1502, 0.0
1504, 0.0
1506, 0.0
1508, 0.0
1510, 0.0
1512, 0.0
1514, 0.0
1516, 0.0
1518, 0.0
1520, 0.0
1522, 0.0
1524, 0.0
1526, 0.0
1528, 0.0
1530, 0.0
1532, 0.0
1534, 0.0
1536, 0.0
1538, 0.0
1540, 0.0
1542, 0.0
1544, 0.0
1546, 0.0
1548, 0.0
1550, 0.0
1552, 0.0
1554, 0.0
1556, 0.0
1558, 0.0
1560, 0.0
1562, 0.0
1564, 0.0
1566, 0.0
1568, 0.0
1570, 0.0
1572, 0.0
1574, 0.0
1576, 0.0
1578, 0.0
1580, 0.0
1582, 0.0
1584, 0.0
1586, 0.0
1588, 0.0
1590, 0.0
1592, 0.0
1594, 0.0
1596, 0.0
1598, 0.0
1599, 0.0