File: raw data/Dataset_2/Brassite/Brassite__R060042__Raman__780__0__unoriented__Raman_Data_Processed__26881.txt
30, 0.0
32, 0.0
34, 0.0
36, 0.0
38, 0.0
40, 0.0
42, 0.0
44, 0.0
46, 0.0
48, 0.0
50, 0.0
52, 0.0
54, 0.0
56, 0.0
58, 0.0
60, 0.0
62, 0.0
64, 0.0
66, 0.0
68, 0.0
70, 0.0
72, 0.0
74, 0.0
76, 0.0
78, 0.0
80, 0.0
82, 0.0
84, 0.0
86, 0.0
88, 0.0
90, 0.0
92, 0.0
94, 0.0
96, 0.0
98, 0.0
100, 0.0
102, 0.0
104, 0.0
106, 0.0
108, 0.0
110, 0.0
112, 0.0
114, 0.0
116, 0.0
118, 0.0
120, 0.0
122, 0.0
124, 0.0
126, 0.0
128, 0.0
130, 0.0
132, 0.0
134, 0.0
136, 0.0
138, 0.0
140, 0.0
142, 0.0
144, 0.0
146, 0.0
148, 0.0
150, 0.0
152, 0.0
154, 0.0
156, 0.0
158, 0.0
160, 0.0
162, 0.0
164, 0.0
166, 0.0
168, 0.0
170.0, 0.000216222
172.0, 0.00487734
174.0, 0.0100028
176.0, 0.0230665
178.0, 0.0272171
180.0, 0.0453556
182.0, 0.0456216
184.0, 0.0393201
186.0, 0.0318795
188.0, 0.0247674
190.0, 0.0216476
192.0, 0.0363036
194.0, 0.0405316
196.0, 0.0521227
198.0, 0.0569019
200.0, 0.0541123
202.0, 0.0478356
204.0, 0.0362018
206.0, 0.0249077
208.0, 0.0158494
210.0, 0.0124211
212.0, 0.00285322
214.0, 0.002393
216.0, 0.00122901
218.0, 0.000667542
220.0, 0.00370021
222.0, 0.00330348
224.0, 0.00463222
226.0, 0.00279167
228.0, 0.00308068
230.0, 0.00659459
232.0, 0.0124776
234.0, 0.0152411
236.0, 0.0227186
238.0, 0.0276775
240.0, 0.035829
242.0, 0.0385726
244.0, 0.0393398
246.0, 0.0384434
248.0, 0.0317287
250.0, 0.0309723
252.0, 0.0281125
254.0, 0.0224048
256.0, 0.022222
258.0, 0.0283827
260.0, 0.0303552
262.0, 0.0401299
264.0, 0.0496323
266.0, 0.0532464
268.0, 0.0662625
270.0, 0.0701864
272.0, 0.0801609
274.0, 0.0828683
276.0, 0.0826816
278.0, 0.088702
280.0, 0.0894744
282.0, 0.0976834
284.0, 0.109231
286.0, 0.116991
288.0, 0.125574
290.0, 0.138628
292.0, 0.148838
294.0, 0.162066
296.0, 0.158907
298.0, 0.14817
300.0, 0.137962
302.0, 0.122192
304.0, 0.103145
306.0, 0.0844569
308.0, 0.0621924
310.0, 0.0454275
312.0, 0.0330877
314.0, 0.0201241
316.0, 0.00660947
318.0, 0.009164
320.0, 0.0108626
322.0, 0.0068015
324.0, 0.00566884
326.0, 0.0120665
328.0, 0.00835728
330.0, 0.0117358
332.0, 0.00927293
334.0, 0.00866939
336.0, 0.000412861
338.0, 0.00147426
340.0, 0.000708114
342.0, 0.00121513
344.0, 0.0051184
346.0, 0.00170061
348.0, 0.00493273
350.0, 0.00285778
352.0, 0.00624051
354.0, 0.0114189
356.0, 0.013586
358.0, 0.0199578
360.0, 0.0227212
362.0, 0.0268469
364.0, 0.038357
366.0, 0.0403203
368.0, 0.05252
370.0, 0.0702711
372.0, 0.0861895
374.0, 0.104906
376.0, 0.126641
378.0, 0.141782
380.0, 0.165075
382.0, 0.181453
384.0, 0.200109
386.0, 0.213561
388.0, 0.22443
390.0, 0.226143
392.0, 0.229981
394.0, 0.225394
396.0, 0.225444
398.0, 0.218224
400.0, 0.21457
402.0, 0.206606
404.0, 0.200451
406.0, 0.191541
408.0, 0.181317
410.0, 0.172804
412.0, 0.164012
414.0, 0.145059
416.0, 0.133379
418.0, 0.123001
420.0, 0.111595
422.0, 0.101226
424.0, 0.0950302
426.0, 0.0890271
428.0, 0.0807884
430.0, 0.0737337
432.0, 0.0698627
434.0, 0.0644008
436.0, 0.0624415
438.0, 0.05865
440.0, 0.0533266
442.0, 0.050109
444.0, 0.0454227
446.0, 0.049354
448.0, 0.0435428
450.0, 0.0435015
452.0, 0.0437192
454.0, 0.0414467
456.0, 0.0339797
458.0, 0.0354309
460.0, 0.0286979
462.0, 0.0208734
464.0, 0.0178659
466.0, 0.0110686
468.0, 0.00910745
470.0, 0.00382899
472.0, 0.0030537
474.0, 0.000663469
476.0, 0.00118693
478.0, 0.00204473
480.0, 0.00622089
482.0, 0.00169392
484.0, 0.00678624
486.0, 0.00110238
488.0, 0.00317109
490.0, 0.00147511
492.0, 0.00353144
494.0, 0.00392889
496.0, 0.0048508
498.0, 0.00376841
500.0, 0.007871
502.0, 0.00745916
504.0, 0.00682033
506.0, 0.0129505
508.0, 0.0120056
510.0, 0.0130406
512.0, 0.016999
514.0, 0.011333
516.0, 0.0157131
518.0, 0.0175038
520.0, 0.014471
522.0, 0.0192328
524.0, 0.021028
526.0, 0.0216593
528.0, 0.022765
530.0, 0.0219372
532.0, 0.0237247
534.0, 0.027871
536.0, 0.0257041
538.0, 0.0246564
540.0, 0.0200064
542.0, 0.0235369
544.0, 0.0238682
546.0, 0.0226376
548.0, 0.0235599
550.0, 0.0234071
552.0, 0.0209072
554.0, 0.0249866
556.0, 0.0264297
558.0, 0.0247762
560.0, 0.0245847
562.0, 0.0262935
564.0, 0.0316025
566.0, 0.0293403
568.0, 0.029379
570.0, 0.0311844
572.0, 0.0346893
574.0, 0.0382679
576.0, 0.0393034
578.0, 0.0406869
580.0, 0.0395576
582.0, 0.0363464
584.0, 0.0398272
586.0, 0.035307
588.0, 0.037051
590.0, 0.0364937
592.0, 0.0322185
594.0, 0.0342428
596.0, 0.0323628
598.0, 0.0307213
600.0, 0.0292908
602.0, 0.0244272
604.0, 0.0263848
606.0, 0.0265305
608.0, 0.024799
610.0, 0.0205828
612.0, 0.0145115
614.0, 0.0167942
616.0, 0.0106519
618.0, 0.0125071
620.0, 0.0146855
622.0, 0.00869462
624.0, 0.00786541
626.0, 0.00349605
628.0, 0.00873837
630.0, 0.00363356
632.0, 0.00175442
634.0, 0.00235585
636.0, 0.00482478
638.0, 0.00282401
640.0, 0.00296191
642.0, 3.34982e-05
644.0, 0.00137936
646.0, 0.000104909
648.0, 0.000422819
650.0, 0.00304703
652.0, 0.00171393
654.0, 0.00134344
656.0, 0.00105704
658.0, 0.00018046
660.0, 0.00176084
662.0, 0.000410906
664.0, 0.00691683
666.0, 0.00911886
668.0, 0.0104538
670.0, 0.0183099
672.0, 0.0231469
674.0, 0.0264331
676.0, 0.0343613
678.0, 0.0436458
680.0, 0.0494226
682.0, 0.0584642
684.0, 0.0680771
686.0, 0.0795931
688.0, 0.0851507
690.0, 0.0983632
692.0, 0.103422
694.0, 0.111601
696.0, 0.114957
698.0, 0.116251
700.0, 0.11715
702.0, 0.113859
704.0, 0.110027
706.0, 0.103893
708.0, 0.0975491
710.0, 0.088728
712.0, 0.0832832
714.0, 0.0758411
716.0, 0.0650943
718.0, 0.0615221
720.0, 0.0500334
722.0, 0.0534464
724.0, 0.0425745
726.0, 0.0399298
728.0, 0.0330031
730.0, 0.024868
732.0, 0.0197394
734.0, 0.0186163
736.0, 0.00984857
738.0, 0.00886761
740.0, 0.00261096
742.0, 0.0031715
744.0, 0.000339318
746.0, 0.000795194
748.0, 0.00558148
750.0, 0.0025111
752.0, 0.0038216
754.0, 0.0039505
756.0, 0.00996118
758.0, 0.0101526
760.0, 0.00341858
762.0, 0.00557998
764.0, 0.00237876
766.0, 0.0046778
768.0, 0.010645
770.0, 0.0183499
772.0, 0.031928
774.0, 0.0479517
776.0, 0.0620608
778.0, 0.083626
780.0, 0.114323
782.0, 0.14301
784.0, 0.182731
786.0, 0.227233
788.0, 0.280537
790.0, 0.349273
792.0, 0.42361
794.0, 0.507427
796.0, 0.601712
798.0, 0.692267
800.0, 0.782429
802.0, 0.870171
804.0, 0.940182
806.0, 0.988824
808.0, 0.997215
810.0, 0.971998
812.0, 0.90701
814.0, 0.805951
816.0, 0.698864
818.0, 0.585357
820.0, 0.492305
822.0, 0.405398
824.0, 0.334977
826.0, 0.279208
828.0, 0.232488
830.0, 0.206688
832.0, 0.171616
834.0, 0.149005
836.0, 0.135444
838.0, 0.129721
840.0, 0.128814
842.0, 0.128742
844.0, 0.14554
846.0, 0.161491
848.0, 0.18229
850.0, 0.198553
852.0, 0.238568
854.0, 0.274322
856.0, 0.314198
858.0, 0.35626
860.0, 0.390818
862.0, 0.412742
864.0, 0.411133
866.0, 0.388146
868.0, 0.354988
870.0, 0.321363
872.0, 0.283407
874.0, 0.255533
876.0, 0.231454
878.0, 0.210301
880.0, 0.190882
882.0, 0.170905
884.0, 0.148796
886.0, 0.126205
888.0, 0.109374
890.0, 0.091456
892.0, 0.0685858
894.0, 0.0562604
896.0, 0.0458427
898.0, 0.0321137
900.0, 0.0289128
902.0, 0.0219042
904.0, 0.0174741
906.0, 0.0106118
908.0, 0.00714651
910.0, 0.00581525
912.0, 0.00442454
914.0, 0.00292073
916.0, 0.00200538
918.0, 0.00509611
920.0, 0.00287182
922.0, 0.00143468
924.0, 0.00280371
926.0, 0.00659068
928.0, 0.00653724
930.0, 0.000641898
932.0, 0.00330639
934.0, 0.00579462
936.0, 0.00366213
938.0, 0.00141203
940.0, 0.000951547
942.0, 0.000155934
944.0, 0.00499044
946.0, 0.0027508
948.0, 0.00542883
950.0, 0.00310688
952.0, 0.00306874
954.0, 0.00718659
956.0, 0.0118436
958.0, 0.00782526
960.0, 0.0096025
962.0, 0.013108
964.0, 0.0124692
966.0, 0.0126718
968.0, 0.0151823
970.0, 0.0162931
972.0, 0.0162576
974.0, 0.0135948
976.0, 0.013627
978.0, 0.0155517
980.0, 0.0128781
982.0, 0.0158317
984.0, 0.0162398
986.0, 0.0183943
988.0, 0.0156357
990.0, 0.0129699
992.0, 0.0158956
994.0, 0.0114033
996.0, 0.0148903
998.0, 0.012055
1000.0, 0.00960352
1002.0, 0.00800178
1004.0, 0.00641922
1006.0, 0.0102547
1008.0, 0.0110875
1010.0, 0.00730793
1012.0, 0.0111766
1014.0, 0.00599962
1016.0, 0.00867488
1018.0, 0.00999748
1020.0, 0.00977664
1022.0, 0.010207
1024.0, 0.0104042
1026.0, 0.0111064
1028.0, 0.011167
1030.0, 0.0115803
1032.0, 0.0106691
1034.0, 0.0105454
1036.0, 0.00979336
1038.0, 0.00680267
1040.0, 0.0110698
1042.0, 0.00893635
1044.0, 0.00758033
1046.0, 0.00772966
1048.0, 0.0069258
1050.0, 0.00752061
1052.0, 0.00491732
1054.0, 0.0112872
1056.0, 0.00685106
1058.0, 0.00948436
1060.0, 0.00752705
1062.0, 0.00850686
1064.0, 0.00368419
1066.0, 0.00475532
1068.0, 0.00397212
1070.0, 0.00351388
1072.0, 0.00482576
1074.0, 0.0048481
1076.0, 0.00355886
1078.0, 0.00228794
1080.0, 0.00288907
1082.0, 0.00301435
1084.0, 0.00283785
1086.0, 0.00277775
1088.0, 0.00264509
1090.0, 0.00266616
1092.0, 0.00257189
1094.0, 0.00151148
1096.0, 0.00643557
1098.0, 0.00721013
1100.0, 0.00410284
1102.0, 0.00145584
1104.0, 0.00294854
1106.0, 0.00423479
1108.0, 0.000363411
1110.0, 0.000747513
1112.0, 0.00247306
1114.0, 0.0012069
1116.0, 0.00139644
1118.0, 0.0025686
1120.0, 0.000818981
1122.0, 0.000898071
1124.0, 0.00169549
1126.0, 0.000798729
1128.0, 0.00366304
1130.0, 0.00225985
1132.0, 0.00110699
1134.0, 0.00641316
1136.0, 0.00310667
1138.0, 0.00385911
1140.0, 0.0028999
1142.0, 0.00579493
1144.0, 0.00385786
1146.0, 0.00541648
1148.0, 0.00267816
1150.0, 0.00439213
1152.0, 0.00236113
1154.0, 0.00524537
1156.0, 0.002072
1158.0, 0.00468579
1160.0, 0.00304773
1162.0, 0.00191641
1164.0, 0.00477406
1166.0, 0.00065806
1168.0, 0.00148145
1170.0, 0.00272565
1172.0, 0.00581533
1174.0, 0.002486
1176.0, 0.00230805
1178.0, 0.00363944
1180.0, 0.0019439
1182.0, 0.00448917
1184.0, 0.000789624
1186.0, 0.00150611
1188.0, 0.00433226
1190.0, 0.00535846
1192.0, 0.000367608
1194.0, 0.00238226
1196.0, 0.00126033
1198.0, 0.00115235
1200.0, 0.00401181
1202.0, 0.00424017
1204.0, 0.00460897
1206.0, 0.00247083
1208.0, 0.00665642
1210.0, 0.00304922
1212.0, 0.00434189
1214.0, 0.0020028
1216.0, 0.00275989
1218.0, 0.00534181
1220.0, 0.00395651
1222.0, 0.0029913
1224.0, 0.00235725
1226.0, 0.00228438
1228.0, 0.00543886
1230.0, 0.00896637
1232.0, 0.00648189
1234.0, 0.00825371
1236.0, 0.00759625
1238.0, 0.00750318
1240.0, 0.0061925
1242.0, 0.00688612
1244.0, 0.00790993
1246.0, 0.00697173
1248.0, 0.00486898
1250.0, 0.0029357
1252.0, 0.00420906
1254.0, 0.00525862
1256.0, 0.00186994
1258.0, 0.00473488
1260.0, 0.0021862
1262.0, 0.00227997
1264.0, 0.00134923
1266.0, 0.00540354
1268.0, 0.00257697
1270.0, 0.00364764
1272.0, 0.00335656
1274.0, 0.000742651
1276.0, 0.000472648
1278, 0.0
1280, 0.0
1282, 0.0
1284, 0.0
1286, 0.0
1288, 0.0
1290, 0.0
1292, 0.0
1294, 0.0
1296, 0.0
1298, 0.0
1300, 0.0
1302, 0.0
1304, 0.0
1306, 0.0
1308, 0.0
1310, 0.0
1312, 0.0
1314, 0.0
1316, 0.0
1318, 0.0
1320, 0.0
1322, 0.0
1324, 0.0
1326, 0.0
1328, 0.0
1330, 0.0
1332, 0.0
1334, 0.0
1336, 0.0
1338, 0.0
1340, 0.0
1342, 0.0
1344, 0.0
1346, 0.0
1348, 0.0
1350, 0.0
1352, 0.0
1354, 0.0
1356, 0.0
1358, 0.0
1360, 0.0
1362, 0.0
1364, 0.0
1366, 0.0
1368, 0.0
1370, 0.0
1372, 0.0
1374, 0.0
1376, 0.0
1378, 0.0
1380, 0.0
1382, 0.0
1384, 0.0
1386, 0.0
1388, 0.0
1390, 0.0
1392, 0.0
1394, 0.0
1396, 0.0
1398, 0.0
1400, 0.0
1402, 0.0
1404, 0.0
1406, 0.0
1408, 0.0
1410, 0.0
1412, 0.0
1414, 0.0
1416, 0.0
1418, 0.0
1420, 0.0
1422, 0.0
1424, 0.0
1426, 0.0
1428, 0.0
1430, 0.0
1432, 0.0
1434, 0.0
1436, 0.0
1438, 0.0
1440, 0.0
1442, 0.0
1444, 0.0
1446, 0.0
1448, 0.0
1450, 0.0
1452, 0.0
1454, 0.0
1456, 0.0
1458, 0.0
1460, 0.0
1462, 0.0
1464, 0.0
1466, 0.0
1468, 0.0
1470, 0.0
1472, 0.0
1474, 0.0
1476, 0.0
1478, 0.0
1480, 0.0
1482, 0.0
1484, 0.0
1486, 0.0
1488, 0.0
1490, 0.0
1492, 0.0
1494, 0.0
1496, 0.0
1498, 0.0
1500, 0.0
1502, 0.0
1504, 0.0
1506, 0.0
1508, 0.0
1510, 0.0
1512, 0.0
1514, 0.0
1516, 0.0
1518, 0.0
1520, 0.0
1522, 0.0
1524, 0.0
1526, 0.0
1528, 0.0
1530, 0.0
1532, 0.0
1534, 0.0
1536, 0.0
1538, 0.0
1540, 0.0
1542, 0.0
1544, 0.0
1546, 0.0
1548, 0.0
1550, 0.0
1552, 0.0
1554, 0.0
1556, 0.0
1558, 0.0
1560, 0.0
1562, 0.0
1564, 0.0
1566, 0.0
1568, 0.0
1570, 0.0
1572, 0.0
1574, 0.0
1576, 0.0
1578, 0.0
1580, 0.0
1582, 0.0
1584, 0.0
1586, 0.0
1588, 0.0
1590, 0.0
1592, 0.0
1594, 0.0
1596, 0.0
1598, 0.0
1599, 0.0