File: raw data/Dataset_2/Ferrokesterite/Ferrokesterite__R110173__Raman__780__0__unoriented__Raman_Data_Processed__35822.txt
30, 0.0
32, 0.0
34, 0.0
36, 0.0
38, 0.0
40, 0.0
42, 0.0
44, 0.0
46, 0.0
48, 0.0
50, 0.0
52, 0.0
54, 0.0
56, 0.0
58, 0.0
60, 0.0
62, 0.0
64, 0.0
66, 0.0
68, 0.0
70, 0.0
72, 0.0
74, 0.0
76, 0.0
78, 0.0
80, 0.0
82, 0.0
84, 0.0
86, 0.0
88, 0.0
90, 0.0
92, 0.0
94.0, 0.0391061
96.0, 0.0515165
98.0, 0.0324855
100.0, 0.0137571
102.0, 0.0019081
104.0, 0.000376261
106.0, 0.00033832
108.0, 0.00145066
110.0, 0.00589324
112.0, 0.0090916
114.0, 0.0135175
116.0, 0.014592
118.0, 0.0196701
120.0, 0.021159
122.0, 0.0227258
124.0, 0.0258284
126.0, 0.0266579
128.0, 0.0301395
130.0, 0.0315341
132.0, 0.0369094
134.0, 0.0394951
136.0, 0.0425959
138.0, 0.0403926
140.0, 0.0410181
142.0, 0.037757
144.0, 0.0330887
146.0, 0.0299471
148.0, 0.0257649
150.0, 0.0216864
152.0, 0.0167561
154.0, 0.0131113
156.0, 0.00914823
158.0, 0.00736424
160.0, 0.00585958
162.0, 1.83636e-05
164.0, 0.000198425
166.0, 0.00348583
168.0, 0.0020895
170.0, 0.00094631
172.0, 0.000812465
174.0, 8.88697e-05
176.0, 4.24469e-05
178.0, 0.000564229
180.0, 0.00137646
182.0, 0.00116681
184.0, 0.00163875
186.0, 0.000468358
188.0, 0.00264987
190.0, 0.00270634
192.0, 0.0028644
194.0, 0.00502979
196.0, 0.00480711
198.0, 0.00364792
200.0, 0.00174802
202.0, 0.00131091
204.0, 0.000657706
206.0, 0.000169477
208.0, 0.00135419
210.0, 0.000373747
212.0, 0.00226897
214.0, 0.000661217
216.0, 0.000281053
218.0, 0.00152622
220.0, 0.000939214
222.0, 0.00165355
224.0, 0.0027376
226.0, 0.00283315
228.0, 0.00379206
230.0, 0.00357186
232.0, 0.00153844
234.0, 0.00153988
236.0, 0.000747647
238.0, 0.000752584
240.0, 0.00276295
242.0, 0.00343862
244.0, 0.00688492
246.0, 0.0108851
248.0, 0.0148455
250.0, 0.0191437
252.0, 0.0224258
254.0, 0.0273066
256.0, 0.0336946
258.0, 0.0375901
260.0, 0.0424637
262.0, 0.049728
264.0, 0.0516047
266.0, 0.0517907
268.0, 0.0558287
270.0, 0.0592666
272.0, 0.0627095
274.0, 0.072152
276.0, 0.0892673
278.0, 0.115473
280.0, 0.152162
282.0, 0.204537
284.0, 0.267537
286.0, 0.309701
288.0, 0.289575
290.0, 0.227277
292.0, 0.174315
294.0, 0.145645
296.0, 0.133144
298.0, 0.127152
300.0, 0.131307
302.0, 0.13526
304.0, 0.136504
306.0, 0.139375
308.0, 0.145166
310.0, 0.154616
312.0, 0.172195
314.0, 0.196509
316.0, 0.232524
318.0, 0.281735
320.0, 0.350575
322.0, 0.450543
324.0, 0.591821
326.0, 0.763449
328.0, 0.921017
330.0, 0.987477
332.0, 0.999094
334.0, 0.970703
336.0, 0.845075
338.0, 0.57438
340.0, 0.33381
342.0, 0.220631
344.0, 0.171304
346.0, 0.141232
348.0, 0.121766
350.0, 0.109216
352.0, 0.104655
354.0, 0.105402
356.0, 0.106011
358.0, 0.113457
360.0, 0.129332
362.0, 0.145055
364.0, 0.147685
366.0, 0.141199
368.0, 0.127688
370.0, 0.106137
372.0, 0.075816
374.0, 0.0493342
376.0, 0.0277971
378.0, 0.0133069
380.0, 0.00379387
382.0, 0.00157457
384.0, 0.00312611
386.0, 0.00379884
388.0, 0.00367929
390.0, 0.00237631
392.0, 0.00329168
394.0, 0.00333511
396.0, 0.00330758
398.0, 0.00151906
400.0, 0.000834735
402.0, 0.00188997
404.0, 2.01033e-05
406.0, 0.000302922
408.0, 0.00198814
410.0, 0.00677976
412.0, 0.00495958
414.0, 0.00399427
416.0, 0.00517003
418.0, 0.0053952
420.0, 0.00649332
422.0, 0.00776929
424.0, 0.00879533
426.0, 0.00973454
428.0, 0.0103635
430.0, 0.0102577
432.0, 0.0118659
434.0, 0.0118134
436.0, 0.0124619
438.0, 0.0132271
440.0, 0.0121261
442.0, 0.0133696
444.0, 0.0129469
446.0, 0.0110393
448.0, 0.0132603
450.0, 0.0119424
452.0, 0.0106183
454.0, 0.0105135
456.0, 0.00724965
458.0, 0.00891849
460.0, 0.00782862
462.0, 0.00830864
464.0, 0.0059822
466.0, 0.00574866
468.0, 0.0062089
470.0, 0.0069238
472.0, 0.00719001
474.0, 0.00866398
476.0, 0.00650783
478.0, 0.00597174
480.0, 0.00648146
482.0, 0.00534755
484.0, 0.00582081
486.0, 0.00605255
488.0, 0.0042226
490.0, 0.00559437
492.0, 0.00548696
494.0, 0.00434605
496.0, 0.0045344
498.0, 0.00235914
500.0, 0.00325692
502.0, 0.00213516
504.0, 0.00346299
506.0, 0.000953227
508.0, 0.00276791
510.0, 0.00193326
512.0, 0.00205106
514.0, 0.00178148
516.0, 0.000207051
518.0, 0.00203727
520.0, 0.000915675
522.0, 0.000144898
524.0, 0.000153891
526.0, 0.000333358
528.0, 0.00022241
530.0, 0.000201787
532.0, 0.000249512
534.0, 0.000760552
536.0, 0.00120348
538.0, 0.000656392
540.0, 5.85982e-05
542.0, 0.00140917
544.0, 0.000115942
546.0, 0.000480889
548.0, 0.000383754
550.0, 0.000364411
552.0, 0.00152476
554.0, 0.000915039
556.0, 0.000778463
558.0, 0.000811734
560.0, 0.00060911
562.0, 0.000538589
564.0, 0.000747218
566.0, 0.00265733
568.0, 0.00160824
570.0, 0.00111033
572.0, 0.000932519
574.0, 0.000226996
576.0, 0.00205882
578.0, 0.00256585
580.0, 0.000867204
582.0, 0.00140015
584.0, 0.000816043
586.0, 0.00188668
588.0, 0.00115037
590.0, 0.00261999
592.0, 0.00244329
594.0, 0.00357682
596.0, 0.00289922
598.0, 0.00320411
600.0, 0.00377379
602.0, 0.00513783
604.0, 0.0050115
606.0, 0.00546317
608.0, 0.00518022
610.0, 0.00519224
612.0, 0.00822196
614.0, 0.00771718
616.0, 0.00713522
618.0, 0.00695366
620.0, 0.00815302
622.0, 0.00728238
624.0, 0.00990601
626.0, 0.00902497
628.0, 0.00974964
630.0, 0.0103564
632.0, 0.00990622
634.0, 0.00967621
636.0, 0.0112443
638.0, 0.0115006
640.0, 0.0123149
642.0, 0.0119068
644.0, 0.0122883
646.0, 0.0135095
648.0, 0.0129279
650.0, 0.0148471
652.0, 0.0163242
654.0, 0.0163756
656.0, 0.0171706
658.0, 0.0193198
660.0, 0.0200418
662.0, 0.0188022
664.0, 0.0167371
666.0, 0.0165748
668.0, 0.014363
670.0, 0.0127433
672.0, 0.00939189
674.0, 0.00865665
676.0, 0.00688661
678.0, 0.00627034
680.0, 0.00695313
682.0, 0.00594317
684.0, 0.00490654
686.0, 0.00321393
688.0, 0.000850181
690.0, 0.00205939
692.0, 0.000843891
694.0, 0.000978754
696.0, 0.000865527
698.0, 0.000257578
700.0, 0.000421396
702.0, 0.000304806
704.0, 0.000812364
706.0, 0.000375267
708.0, 0.000693387
710.0, 0.000102265
712.0, 0.000366407
714.0, 0.00147378
716.0, 0.00124786
718.0, 0.00204021
720.0, 0.00374292
722.0, 0.00390681
724.0, 0.00378131
726.0, 0.00387377
728.0, 0.00411097
730.0, 0.00558874
732.0, 0.00483862
734.0, 0.0045458
736.0, 0.00308632
738.0, 0.00322323
740.0, 0.00197762
742.0, 0.0022889
744.0, 0.00328961
746.0, 0.00103941
748.0, 0.00083155
750.0, 0.00156025
752.0, 0.00251628
754.0, 0.000148631
756.0, 0.000771022
758.0, 0.000100714
760.0, 4.65378e-05
762.0, 0.000669333
764.0, 0.000474457
766.0, 0.000758328
768.0, 0.00143742
770.0, 0.001038
772.0, 0.000507299
774.0, 0.00130101
776.0, 0.000399002
778.0, 0.000898435
780.0, 0.0026423
782.0, 0.00141273
784.0, 0.00136467
786.0, 0.00137618
788.0, 0.000136144
790.0, 0.00106763
792.0, 0.00204652
794.0, 0.0019305
796.0, 0.00374004
798.0, 0.00272242
800.0, 0.00248479
802.0, 0.00185141
804.0, 0.00174703
806.0, 0.00271691
808.0, 0.00209352
810.0, 0.00315839
812.0, 0.00263437
814.0, 0.00163782
816.0, 0.00277707
818.0, 0.00253671
820.0, 0.00294223
822.0, 0.00364354
824.0, 0.00263943
826.0, 0.0001311
828.0, 0.00189954
830.0, 0.0014403
832.0, 0.00179826
834.0, 0.00149653
836.0, 0.00299987
838.0, 0.00319768
840.0, 0.00196874
842.0, 0.00143465
844.0, 0.00147481
846.0, 0.000357821
848.0, 0.000786817
850.0, 0.00245993
852.0, 0.00138743
854.0, 0.00192633
856.0, 0.000525739
858.0, 0.000934703
860.0, 0.00296538
862.0, 0.000953104
864.0, 0.000920475
866.0, 0.00169935
868.0, 0.00174575
870.0, 0.00109837
872.0, 0.0016565
874.0, 0.00200079
876.0, 0.00140119
878.0, 0.00124184
880.0, 0.00183434
882.0, 0.000715027
884.0, 0.00155553
886.0, 0.000946088
888.0, 0.000964139
890.0, 0.000796061
892.0, 0.0012858
894.0, 0.000626668
896.0, 0.000836579
898.0, 0.000324975
900.0, 0.000317722
902.0, 0.000643022
904.0, 0.00165363
906.0, 0.00117982
908.0, 0.000702226
910.0, 0.000650206
912.0, 0.000455801
914.0, 0.0018312
916.0, 0.00165296
918.0, 0.000778354
920.0, 0.00169362
922.0, 0.000292026
924.0, 0.000884224
926.0, 0.00138841
928.0, 0.000499946
930.0, 0.00177382
932.0, 0.00164958
934.0, 0.000526878
936.0, 0.00119294
938.0, 0.000907539
940.0, 0.00140312
942.0, 0.00145396
944.0, 0.00114184
946.0, 0.000944064
948.0, 0.000506828
950.0, 7.717e-05
952.0, 0.000842129
954.0, 0.00149562
956.0, 0.00019553
958.0, 0.000171131
960.0, 0.00117289
962.0, 0.00147099
964.0, 0.00025144
966.0, 0.00013014
968.0, 0.000341921
970.0, 0.00149685
972.0, 0.000227326
974.0, 0.000916134
976.0, 0.00114413
978.0, 0.000481724
980.0, 0.00144435
982.0, 0.00134451
984.0, 0.000116269
986.0, 0.000390841
988.0, 0.000478653
990.0, 0.000870725
992.0, 0.00053929
994.0, 0.00109797
996.0, 0.00015045
998.0, 0.000273587
1000.0, 0.000558734
1002.0, 0.000734658
1004.0, 0.0012965
1006.0, 0.00141341
1008.0, 0.00104525
1010.0, 0.0018357
1012.0, 0.0021166
1014.0, 0.00232176
1016.0, 0.00139417
1018.0, 0.00190625
1020.0, 0.0018802
1022.0, 0.00149575
1024.0, 0.00223077
1026.0, 0.000801248
1028.0, 0.000993512
1030.0, 0.00111753
1032.0, 0.00195089
1034.0, 0.00120407
1036.0, 0.00117154
1038.0, 0.00154773
1040.0, 0.00195131
1042.0, 0.00237057
1044.0, 0.0016586
1046.0, 0.00118278
1048.0, 0.00121331
1050.0, 0.000564771
1052.0, 0.000595587
1054.0, 0.000568681
1056.0, 0.000938279
1058.0, 0.00110787
1060.0, 0.00122118
1062.0, 0.00106787
1064.0, 0.00165351
1066.0, 0.00210704
1068.0, 0.00170608
1070.0, 0.0020123
1072.0, 0.00101635
1074.0, 0.00148879
1076.0, 0.00111491
1078.0, 0.00219965
1080.0, 0.000949397
1082.0, 0.00161405
1084.0, 0.000875063
1086.0, 0.000236177
1088.0, 0.0015721
1090.0, 0.00132677
1092.0, 0.000660721
1094.0, 0.00160837
1096.0, 0.000516281
1098.0, 0.000289639
1100.0, 0.00118944
1102.0, 0.000319373
1104.0, 0.000963059
1106.0, 0.000125111
1108.0, 0.000824738
1110.0, 0.000168972
1112.0, 0.000787094
1114.0, 0.00065485
1116.0, 0.00100621
1118.0, 9.43393e-05
1120.0, 8.80746e-05
1122.0, 0.00136782
1124.0, 0.00171121
1126.0, 0.000427765
1128.0, 0.00167711
1130.0, 0.000347953
1132.0, 0.00259514
1134.0, 0.00262463
1136.0, 0.00125109
1138.0, 0.00196963
1140.0, 0.000567744
1142.0, 0.0027807
1144.0, 0.00101443
1146.0, 0.00230382
1148.0, 0.00240284
1150.0, 0.00168447
1152.0, 0.00197937
1154.0, 0.001311
1156.0, 0.0018763
1158.0, 0.00191317
1160.0, 0.00283959
1162.0, 0.00211009
1164.0, 0.00283548
1166.0, 0.00175742
1168.0, 0.00233653
1170.0, 0.00242504
1172.0, 0.00224738
1174.0, 0.00190463
1176.0, 0.00366034
1178.0, 0.00281858
1180.0, 0.00333196
1182.0, 0.00205886
1184.0, 0.0033387
1186.0, 0.00233758
1188.0, 0.0015255
1190.0, 0.00432589
1192.0, 0.00342751
1194.0, 0.00215144
1196.0, 0.00300366
1198.0, 0.00276495
1200.0, 0.00253492
1202.0, 0.00259381
1204.0, 0.00158787
1206.0, 0.00180981
1208.0, 0.00244277
1210.0, 0.00256015
1212.0, 0.0015292
1214.0, 0.001842
1216.0, 0.00106674
1218.0, 0.0028059
1220.0, 0.00191969
1222.0, 0.00144606
1224.0, 0.0028144
1226.0, 0.000559001
1228.0, 0.000445917
1230.0, 0.000646419
1232.0, 0.00172788
1234.0, 0.000949021
1236.0, 0.000915481
1238.0, 0.00175639
1240.0, 0.000136142
1242.0, 3.89458e-05
1244.0, 0.00144785
1246.0, 0.000552006
1248.0, 0.000446445
1250.0, 0.00127866
1252.0, 0.000873731
1254.0, 0.000419434
1256.0, 0.00150628
1258.0, 0.000870503
1260.0, 0.000866334
1262.0, 0.000294836
1264.0, 0.00115577
1266.0, 0.0013596
1268.0, 0.0014864
1270.0, 0.00130954
1272.0, 0.00149307
1274.0, 0.00153233
1276.0, 0.000614222
1278.0, 0.00156791
1280.0, 0.00153119
1282.0, 0.00106273
1284.0, 0.00039742
1286, 0.0
1288, 0.0
1290, 0.0
1292, 0.0
1294, 0.0
1296, 0.0
1298, 0.0
1300, 0.0
1302, 0.0
1304, 0.0
1306, 0.0
1308, 0.0
1310, 0.0
1312, 0.0
1314, 0.0
1316, 0.0
1318, 0.0
1320, 0.0
1322, 0.0
1324, 0.0
1326, 0.0
1328, 0.0
1330, 0.0
1332, 0.0
1334, 0.0
1336, 0.0
1338, 0.0
1340, 0.0
1342, 0.0
1344, 0.0
1346, 0.0
1348, 0.0
1350, 0.0
1352, 0.0
1354, 0.0
1356, 0.0
1358, 0.0
1360, 0.0
1362, 0.0
1364, 0.0
1366, 0.0
1368, 0.0
1370, 0.0
1372, 0.0
1374, 0.0
1376, 0.0
1378, 0.0
1380, 0.0
1382, 0.0
1384, 0.0
1386, 0.0
1388, 0.0
1390, 0.0
1392, 0.0
1394, 0.0
1396, 0.0
1398, 0.0
1400, 0.0
1402, 0.0
1404, 0.0
1406, 0.0
1408, 0.0
1410, 0.0
1412, 0.0
1414, 0.0
1416, 0.0
1418, 0.0
1420, 0.0
1422, 0.0
1424, 0.0
1426, 0.0
1428, 0.0
1430, 0.0
1432, 0.0
1434, 0.0
1436, 0.0
1438, 0.0
1440, 0.0
1442, 0.0
1444, 0.0
1446, 0.0
1448, 0.0
1450, 0.0
1452, 0.0
1454, 0.0
1456, 0.0
1458, 0.0
1460, 0.0
1462, 0.0
1464, 0.0
1466, 0.0
1468, 0.0
1470, 0.0
1472, 0.0
1474, 0.0
1476, 0.0
1478, 0.0
1480, 0.0
1482, 0.0
1484, 0.0
1486, 0.0
1488, 0.0
1490, 0.0
1492, 0.0
1494, 0.0
1496, 0.0
1498, 0.0
1500, 0.0
1502, 0.0
1504, 0.0
1506, 0.0
1508, 0.0
1510, 0.0
1512, 0.0
1514, 0.0
1516, 0.0
1518, 0.0
1520, 0.0
1522, 0.0
1524, 0.0
1526, 0.0
1528, 0.0
1530, 0.0
1532, 0.0
1534, 0.0
1536, 0.0
1538, 0.0
1540, 0.0
1542, 0.0
1544, 0.0
1546, 0.0
1548, 0.0
1550, 0.0
1552, 0.0
1554, 0.0
1556, 0.0
1558, 0.0
1560, 0.0
1562, 0.0
1564, 0.0
1566, 0.0
1568, 0.0
1570, 0.0
1572, 0.0
1574, 0.0
1576, 0.0
1578, 0.0
1580, 0.0
1582, 0.0
1584, 0.0
1586, 0.0
1588, 0.0
1590, 0.0
1592, 0.0
1594, 0.0
1596, 0.0
1598, 0.0
1599, 0.0