File: raw data/Dataset_2/Ferrokesterite/Ferrokesterite__R110173__Raman__532__0__unoriented__Raman_Data_Processed__35820.txt
30, 0.0
32, 0.0
34, 0.0
36, 0.0
38, 0.0
40, 0.0
42, 0.0
44, 0.0
46, 0.0
48, 0.0
50, 0.0
52, 0.0
54, 0.0
56, 0.0
58, 0.0
60, 0.0
62, 0.0
64, 0.0
66, 0.0
68, 0.0
70, 0.0
72, 0.0
74, 0.0
76, 0.0
78, 0.0
80, 0.0
82, 0.0
84, 0.0
86, 0.0
88, 0.0
90, 0.0
92, 0.0
94, 0.0
96, 0.0
98, 0.0
100, 0.0
102, 0.0
104, 0.0
106, 0.0
108, 0.0
110, 0.0
112, 0.0
114, 0.0
116, 0.0
118, 0.0
120, 0.0
122, 0.0
124, 0.0
126, 0.0
128, 0.0
130, 0.0
132, 0.0
134, 0.0
136, 0.0
138, 0.0
140, 0.0
142, 0.0
144, 0.0
146, 0.0
148, 0.0
150, 0.0
152, 0.0
154, 0.0
156, 0.0
158, 0.0
160, 0.0
162, 0.0
164, 0.0
166, 0.0
168, 0.0
170, 0.0
172, 0.0
174, 0.0
176, 0.0
178, 0.0
180.0, 5.36427e-05
182.0, 0.00506926
184.0, 0.00397502
186.0, 0.00417297
188.0, 0.00591624
190.0, 0.00636972
192.0, 0.00602492
194.0, 0.00971105
196.0, 0.00905284
198.0, 0.0106853
200.0, 0.0104306
202.0, 0.0143581
204.0, 0.0140263
206.0, 0.0113051
208.0, 0.00877296
210.0, 0.00735699
212.0, 0.0041853
214.0, 0.00134996
216.0, 0.00198776
218.0, 0.00106875
220.0, 0.00147623
222.0, 0.00393292
224.0, 0.00403717
226.0, 0.00472668
228.0, 0.00654467
230.0, 0.00367452
232.0, 0.000945693
234.0, 0.000561456
236.0, 0.00221043
238.0, 0.00864584
240.0, 0.0123024
242.0, 0.0179321
244.0, 0.0237715
246.0, 0.0301379
248.0, 0.0364952
250.0, 0.0372835
252.0, 0.0425536
254.0, 0.0465888
256.0, 0.0485671
258.0, 0.0536753
260.0, 0.0521626
262.0, 0.0547638
264.0, 0.0568595
266.0, 0.0610879
268.0, 0.0645723
270.0, 0.0733457
272.0, 0.0804565
274.0, 0.0900943
276.0, 0.106743
278.0, 0.117953
280.0, 0.135022
282.0, 0.150105
284.0, 0.165516
286.0, 0.179953
288.0, 0.185678
290.0, 0.180156
292.0, 0.169932
294.0, 0.150625
296.0, 0.136738
298.0, 0.130434
300.0, 0.129991
302.0, 0.136541
304.0, 0.142277
306.0, 0.158167
308.0, 0.171332
310.0, 0.19118
312.0, 0.223119
314.0, 0.265012
316.0, 0.321114
318.0, 0.391374
320.0, 0.469129
322.0, 0.571351
324.0, 0.6709
326.0, 0.778529
328.0, 0.884805
330.0, 0.970215
332.0, 0.997991
334.0, 0.988261
336.0, 0.923012
338.0, 0.800648
340.0, 0.640345
342.0, 0.486924
344.0, 0.393771
346.0, 0.34551
348.0, 0.317809
350.0, 0.29118
352.0, 0.272043
354.0, 0.251235
356.0, 0.234847
358.0, 0.2107
360.0, 0.186899
362.0, 0.165197
364.0, 0.142975
366.0, 0.116584
368.0, 0.0901424
370.0, 0.0653759
372.0, 0.0483757
374.0, 0.034907
376.0, 0.0215978
378.0, 0.0132217
380.0, 0.00467606
382.0, 0.00114903
384.0, 0.00262819
386.0, 0.00550734
388.0, 0.00503395
390.0, 0.00597372
392.0, 0.00654942
394.0, 0.00482604
396.0, 0.00556673
398.0, 0.000872933
400.0, 0.000104375
402.0, 0.00137106
404.0, 0.000944801
406.0, 0.00185737
408.0, 0.0039324
410.0, 0.00460729
412.0, 0.00455323
414.0, 0.00570258
416.0, 0.00622279
418.0, 0.0102439
420.0, 0.00595519
422.0, 0.00645552
424.0, 0.00568036
426.0, 0.00836681
428.0, 0.00903993
430.0, 0.00760316
432.0, 0.00929083
434.0, 0.00734712
436.0, 0.0071454
438.0, 0.00991568
440.0, 0.00803631
442.0, 0.00961015
444.0, 0.010241
446.0, 0.00892121
448.0, 0.00924171
450.0, 0.0105189
452.0, 0.00755546
454.0, 0.00591296
456.0, 0.00692617
458.0, 0.00738323
460.0, 0.00731712
462.0, 0.00799517
464.0, 0.007602
466.0, 0.00716314
468.0, 0.00995252
470.0, 0.00851121
472.0, 0.0112995
474.0, 0.0130991
476.0, 0.00928958
478.0, 0.00965541
480.0, 0.0110394
482.0, 0.00982717
484.0, 0.0103123
486.0, 0.00969559
488.0, 0.00811798
490.0, 0.011076
492.0, 0.0096152
494.0, 0.00866807
496.0, 0.00633031
498.0, 0.0052903
500.0, 0.00539894
502.0, 0.00267489
504.0, 0.00485722
506.0, 0.00205569
508.0, 0.00446053
510.0, 0.00376934
512.0, 0.00295568
514.0, 0.00287749
516.0, 0.000737312
518.0, 0.00300013
520.0, 0.00171383
522.0, 0.000390096
524.0, 0.000765114
526.0, 0.00093076
528.0, 0.00178714
530.0, 0.000356886
532.0, 2.38501e-05
534.0, 0.000455497
536.0, 0.00102335
538.0, 0.000120681
540.0, 0.00070168
542.0, 0.00136209
544.0, 0.00121863
546.0, 0.000756152
548.0, 0.000853294
550.0, 0.0028525
552.0, 0.000646469
554.0, 0.000843353
556.0, 0.00125078
558.0, 0.000271171
560.0, 0.000610891
562.0, 0.000842659
564.0, 0.000572786
566.0, 0.000632238
568.0, 0.00161505
570.0, 0.000648592
572.0, 0.000520317
574.0, 0.0010951
576.0, 0.00130033
578.0, 0.00273426
580.0, 0.00368737
582.0, 0.00288279
584.0, 0.00270563
586.0, 0.0035486
588.0, 0.00239918
590.0, 0.00473635
592.0, 0.00730022
594.0, 0.00525894
596.0, 0.00616415
598.0, 0.00657925
600.0, 0.00697705
602.0, 0.00627892
604.0, 0.00776803
606.0, 0.0070344
608.0, 0.00734835
610.0, 0.00950901
612.0, 0.00892963
614.0, 0.0101738
616.0, 0.00959355
618.0, 0.00930045
620.0, 0.011353
622.0, 0.00930575
624.0, 0.00989908
626.0, 0.011196
628.0, 0.0109608
630.0, 0.0119325
632.0, 0.0125293
634.0, 0.0152606
636.0, 0.0147361
638.0, 0.016591
640.0, 0.017826
642.0, 0.0187208
644.0, 0.0211797
646.0, 0.0197434
648.0, 0.0221896
650.0, 0.0219747
652.0, 0.0221255
654.0, 0.0262124
656.0, 0.0249136
658.0, 0.0279687
660.0, 0.0290684
662.0, 0.0293766
664.0, 0.030431
666.0, 0.0295472
668.0, 0.0313596
670.0, 0.0292049
672.0, 0.0256431
674.0, 0.0238119
676.0, 0.0224841
678.0, 0.0224176
680.0, 0.019497
682.0, 0.0172931
684.0, 0.0184166
686.0, 0.014565
688.0, 0.0165433
690.0, 0.0132436
692.0, 0.0136956
694.0, 0.0109652
696.0, 0.00962345
698.0, 0.0101943
700.0, 0.00854778
702.0, 0.00675491
704.0, 0.00528972
706.0, 0.00504684
708.0, 0.00270777
710.0, 0.00251199
712.0, 0.00155875
714.0, 0.00202165
716.0, 0.000105709
718.0, 0.000536086
720.0, 0.000516765
722.0, 0.000696675
724.0, 0.00142937
726.0, 0.000400652
728.0, 0.000259835
730.0, 0.000160802
732.0, 0.00131448
734.0, 0.00021792
736.0, 0.000498702
738.0, 0.00176018
740.0, 0.000182885
742.0, 0.000447062
744.0, 0.00085245
746.0, 0.00113785
748.0, 0.000786964
750.0, 0.000279572
752.0, 0.000403663
754.0, 0.00199898
756.0, 0.00160704
758.0, 0.000962806
760.0, 0.000651875
762.0, 0.00140565
764.0, 0.00113555
766.0, 0.00131351
768.0, 0.000557608
770.0, 0.000892312
772.0, 0.00210572
774.0, 0.00211361
776.0, 0.00197239
778.0, 0.00190657
780.0, 0.00129352
782.0, 0.000179724
784.0, 0.00291691
786.0, 0.00148665
788.0, 0.0014443
790.0, 0.00191195
792.0, 0.00105381
794.0, 0.00109246
796.0, 0.00338682
798.0, 0.000806274
800.0, 0.00152864
802.0, 0.00270904
804.0, 0.00151477
806.0, 0.00243243
808.0, 0.000635702
810.0, 0.00220314
812.0, 0.00312234
814.0, 0.00280292
816.0, 0.00223683
818.0, 0.0017585
820.0, 0.00257142
822.0, 0.00140552
824.0, 0.00299582
826.0, 0.00343889
828.0, 0.00375611
830.0, 0.000664452
832.0, 0.00255799
834.0, 0.0020312
836.0, 0.00203141
838.0, 0.00192704
840.0, 0.00317655
842.0, 0.00220006
844.0, 0.00177239
846.0, 0.00149301
848.0, 0.00019019
850.0, 0.00120516
852.0, 0.000292862
854.0, 0.0013107
856.0, 0.00184139
858.0, 0.00186421
860.0, 0.000925577
862.0, 0.00148582
864.0, 0.00177471
866.0, 0.00156125
868.0, 0.000892939
870.0, 0.00128861
872.0, 0.00185166
874.0, 0.000437693
876.0, 0.00217228
878.0, 0.00156494
880.0, 0.00124627
882.0, 0.000686833
884.0, 0.00307629
886.0, 0.00100706
888.0, 0.000586341
890.0, 0.00123992
892.0, 0.00102438
894.0, 0.00123389
896.0, 0.000990989
898.0, 0.00099764
900.0, 0.000364552
902.0, 0.00130015
904.0, 0.0024255
906.0, 0.000416396
908.0, 0.00143748
910.0, 0.000523702
912.0, 0.00289287
914.0, 0.000240537
916.0, 0.00176834
918.0, 0.0040577
920.0, 0.00239075
922.0, 0.00346829
924.0, 0.00208108
926.0, 0.00296714
928.0, 0.00257125
930.0, 0.00180111
932.0, 0.00150521
934.0, 0.00157661
936.0, 0.00133542
938.0, 0.00325801
940.0, 0.00324742
942.0, 0.00246581
944.0, 0.000995916
946.0, 0.00268715
948.0, 0.00423702
950.0, 0.00206409
952.0, 0.00370351
954.0, 0.00307842
956.0, 0.00319425
958.0, 0.00343273
960.0, 0.00300868
962.0, 0.00312901
964.0, 0.00266032
966.0, 0.00205843
968.0, 0.00353371
970.0, 0.0043228
972.0, 0.00236743
974.0, 0.0043136
976.0, 0.00381937
978.0, 0.00348302
980.0, 0.00451272
982.0, 0.00409409
984.0, 0.00581023
986.0, 0.00532529
988.0, 0.0063075
990.0, 0.00478955
992.0, 0.00448988
994.0, 0.00574892
996.0, 0.00648807
998.0, 0.00551162
1000.0, 0.00706557
1002.0, 0.00522993
1004.0, 0.00498218
1006.0, 0.00375577
1008.0, 0.00513396
1010.0, 0.00464716
1012.0, 0.00548586
1014.0, 0.00519573
1016.0, 0.00431565
1018.0, 0.00368808
1020.0, 0.0045646
1022.0, 0.00429739
1024.0, 0.00386124
1026.0, 0.00267988
1028.0, 0.00414686
1030.0, 0.00299037
1032.0, 0.00297634
1034.0, 0.00319688
1036.0, 0.00199294
1038.0, 0.00214274
1040.0, 0.000838577
1042.0, 0.000818028
1044.0, 0.000477431
1046.0, 0.00154024
1048.0, 0.000291629
1050.0, 0.000632278
1052.0, 0.00150774
1054.0, 0.00158907
1056.0, 4.68679e-05
1058.0, 0.00016656
1060.0, 0.00166305
1062.0, 0.000755563
1064.0, 0.000585216
1066.0, 0.000777405
1068.0, 0.000280293
1070.0, 0.000266295
1072.0, 0.00570691
1074.0, 0.00122674
1076.0, 0.00233779
1078.0, 0.00147155
1080.0, 0.0011377
1082.0, 0.000285987
1084.0, 0.00130731
1086.0, 0.00271715
1088.0, 0.000385771
1090.0, 0.00100487
1092.0, 0.000739751
1094.0, 0.00149291
1096.0, 0.00193308
1098.0, 0.00173147
1100.0, 0.00156527
1102.0, 0.000237325
1104.0, 0.00150809
1106.0, 0.000502191
1108.0, 0.000296246
1110.0, 0.00156742
1112.0, 0.000460377
1114.0, 0.000852953
1116.0, 0.000965898
1118.0, 0.001926
1120.0, 0.00185754
1122.0, 0.000436543
1124.0, 0.00121336
1126.0, 0.00142796
1128.0, 0.00187767
1130.0, 0.00181847
1132.0, 0.00215846
1134.0, 0.00131846
1136.0, 0.0011371
1138.0, 0.00217437
1140.0, 6.31258e-05
1142.0, 0.00190704
1144.0, 0.00273486
1146.0, 0.00274367
1148.0, 0.000776055
1150.0, 0.0028679
1152.0, 0.000711304
1154.0, 0.00176775
1156.0, 0.0022414
1158.0, 0.000205969
1160.0, 0.0019588
1162.0, 0.00173444
1164.0, 0.00186937
1166.0, 0.00139206
1168.0, 0.000927365
1170.0, 0.00241945
1172.0, 0.00140964
1174.0, 0.00182415
1176.0, 0.00197142
1178.0, 0.00188589
1180.0, 0.00146761
1182.0, 0.00219379
1184.0, 0.00246701
1186.0, 0.00222563
1188.0, 0.00240639
1190.0, 0.00205266
1192.0, 0.00216986
1194.0, 0.00196146
1196.0, 0.000491495
1198.0, 0.00312209
1200.0, 0.00198463
1202.0, 0.00214215
1204.0, 0.00298161
1206.0, 0.0027501
1208.0, 0.00255535
1210.0, 0.0024071
1212.0, 0.000921559
1214.0, 0.001829
1216.0, 0.00273477
1218.0, 0.00161876
1220.0, 0.000849222
1222.0, 0.0017412
1224.0, 0.00305908
1226.0, 0.00210734
1228.0, 0.00301923
1230.0, 0.000751905
1232.0, 0.00179802
1234.0, 0.0017403
1236.0, 0.00235198
1238.0, 0.00261438
1240.0, 0.00268513
1242.0, 0.000516624
1244.0, 0.000833996
1246.0, 0.00233145
1248.0, 0.00123598
1250.0, 0.00286743
1252.0, 0.000453505
1254.0, 0.00268198
1256.0, 0.00197847
1258.0, 0.00241096
1260.0, 0.0027489
1262.0, 0.003069
1264.0, 0.00335429
1266.0, 0.00224699
1268.0, 0.00239414
1270.0, 0.00302871
1272.0, 0.00338328
1274.0, 0.00353683
1276.0, 0.00172933
1278.0, 0.000988951
1280.0, 0.00073424
1282.0, 0.00140427
1284.0, 0.0017253
1286.0, 0.0021498
1288.0, 0.00318108
1290.0, 0.00119807
1292.0, 0.00166536
1294.0, 0.000649577
1296.0, 0.000961282
1298.0, 0.00168056
1300.0, 4.9354e-05
1302.0, 0.000445932
1304, 0.0
1306, 0.0
1308, 0.0
1310, 0.0
1312, 0.0
1314, 0.0
1316, 0.0
1318, 0.0
1320, 0.0
1322, 0.0
1324, 0.0
1326, 0.0
1328, 0.0
1330, 0.0
1332, 0.0
1334, 0.0
1336, 0.0
1338, 0.0
1340, 0.0
1342, 0.0
1344, 0.0
1346, 0.0
1348, 0.0
1350, 0.0
1352, 0.0
1354, 0.0
1356, 0.0
1358, 0.0
1360, 0.0
1362, 0.0
1364, 0.0
1366, 0.0
1368, 0.0
1370, 0.0
1372, 0.0
1374, 0.0
1376, 0.0
1378, 0.0
1380, 0.0
1382, 0.0
1384, 0.0
1386, 0.0
1388, 0.0
1390, 0.0
1392, 0.0
1394, 0.0
1396, 0.0
1398, 0.0
1400, 0.0
1402, 0.0
1404, 0.0
1406, 0.0
1408, 0.0
1410, 0.0
1412, 0.0
1414, 0.0
1416, 0.0
1418, 0.0
1420, 0.0
1422, 0.0
1424, 0.0
1426, 0.0
1428, 0.0
1430, 0.0
1432, 0.0
1434, 0.0
1436, 0.0
1438, 0.0
1440, 0.0
1442, 0.0
1444, 0.0
1446, 0.0
1448, 0.0
1450, 0.0
1452, 0.0
1454, 0.0
1456, 0.0
1458, 0.0
1460, 0.0
1462, 0.0
1464, 0.0
1466, 0.0
1468, 0.0
1470, 0.0
1472, 0.0
1474, 0.0
1476, 0.0
1478, 0.0
1480, 0.0
1482, 0.0
1484, 0.0
1486, 0.0
1488, 0.0
1490, 0.0
1492, 0.0
1494, 0.0
1496, 0.0
1498, 0.0
1500, 0.0
1502, 0.0
1504, 0.0
1506, 0.0
1508, 0.0
1510, 0.0
1512, 0.0
1514, 0.0
1516, 0.0
1518, 0.0
1520, 0.0
1522, 0.0
1524, 0.0
1526, 0.0
1528, 0.0
1530, 0.0
1532, 0.0
1534, 0.0
1536, 0.0
1538, 0.0
1540, 0.0
1542, 0.0
1544, 0.0
1546, 0.0
1548, 0.0
1550, 0.0
1552, 0.0
1554, 0.0
1556, 0.0
1558, 0.0
1560, 0.0
1562, 0.0
1564, 0.0
1566, 0.0
1568, 0.0
1570, 0.0
1572, 0.0
1574, 0.0
1576, 0.0
1578, 0.0
1580, 0.0
1582, 0.0
1584, 0.0
1586, 0.0
1588, 0.0
1590, 0.0
1592, 0.0
1594, 0.0
1596, 0.0
1598, 0.0
1599, 0.0