File: raw data/Dataset_2/Ferrokesterite/Ferrokesterite__R060870__Raman__785__0__unoriented__Raman_Data_Processed__13044.txt
30, 0.0
32, 0.0
34, 0.0
36, 0.0
38, 0.0
40, 0.0
42, 0.0
44, 0.0
46, 0.0
48, 0.0
50, 0.0
52, 0.0
54, 0.0
56, 0.0
58, 0.0
60, 0.0
62, 0.0
64, 0.0
66, 0.0
68, 0.0
70, 0.0
72, 0.0
74, 0.0
76, 0.0
78, 0.0
80, 0.0
82, 0.0
84, 0.0
86, 0.0
88, 0.0
90, 0.0
92, 0.0
94, 0.0
96, 0.0
98, 0.0
100, 0.0
102, 0.0
104, 0.0
106, 0.0
108, 0.0
110, 0.0
112, 0.0
114, 0.0
116, 0.0
118, 0.0
120, 0.0
122, 0.0
124, 0.0
126, 0.0
128, 0.0
130, 0.0
132, 0.0
134, 0.0
136, 0.0
138, 0.0
140, 0.0
142, 0.0
144, 0.0
146, 0.0
148, 0.0
150, 0.0
152, 0.0
154.0, 0.0024022
156.0, 0.000998532
158.0, 0.00418328
160.0, 0.00813298
162.0, 0.00887575
164.0, 0.0102068
166.0, 0.00987633
168.0, 0.00933103
170.0, 0.00907982
172.0, 0.00615001
174.0, 0.00669251
176.0, 0.00502286
178.0, 0.00316654
180.0, 0.00337141
182.0, 0.00610291
184.0, 0.00620707
186.0, 0.00498123
188.0, 0.0048434
190.0, 0.00449023
192.0, 0.00228671
194.0, 0.0036751
196.0, 0.00400943
198.0, 0.00298544
200.0, 0.00361001
202.0, 0.0032565
204.0, 0.00208108
206.0, 0.000341766
208.0, 0.000264183
210.0, 0.00215087
212.0, 0.00137935
214.0, 0.00163402
216.0, 0.000854513
218.0, 0.00141364
220.0, 0.00146988
222.0, 0.000120101
224.0, 0.00144561
226.0, 0.00128004
228.0, 0.00232935
230.0, 0.000669198
232.0, 0.0019119
234.0, 0.00206884
236.0, 0.00309072
238.0, 0.00242928
240.0, 0.00456377
242.0, 0.00569199
244.0, 0.00815748
246.0, 0.010623
248.0, 0.0128847
250.0, 0.0129485
252.0, 0.0150116
254.0, 0.015954
256.0, 0.0161324
258.0, 0.0167674
260.0, 0.0181553
262.0, 0.0216767
264.0, 0.0207917
266.0, 0.0245534
268.0, 0.029872
270.0, 0.0374019
272.0, 0.0498606
274.0, 0.0633057
276.0, 0.0844921
278.0, 0.100813
280.0, 0.119575
282.0, 0.128377
284.0, 0.125956
286.0, 0.117687
288.0, 0.104359
290.0, 0.0949931
292.0, 0.0884459
294.0, 0.0853371
296.0, 0.0841527
298.0, 0.0913877
300.0, 0.102076
302.0, 0.118689
304.0, 0.151112
306.0, 0.197957
308.0, 0.269968
310.0, 0.374964
312.0, 0.510991
314.0, 0.669608
316.0, 0.834314
318.0, 0.94597
320.0, 0.999053
322.0, 0.954765
324.0, 0.860692
326.0, 0.723529
328.0, 0.553299
330.0, 0.388295
332.0, 0.258006
334.0, 0.180349
336.0, 0.133467
338.0, 0.106425
340.0, 0.0908784
342.0, 0.0795305
344.0, 0.0677704
346.0, 0.0592681
348.0, 0.0557478
350.0, 0.0548206
352.0, 0.0618697
354.0, 0.0653096
356.0, 0.0643182
358.0, 0.0603591
360.0, 0.0478622
362.0, 0.0387414
364.0, 0.0258047
366.0, 0.0189254
368.0, 0.0118406
370.0, 0.00725597
372.0, 0.00618941
374.0, 0.00161054
376.0, 0.00219317
378.0, 0.00162892
380.0, 0.00127607
382.0, 0.00143963
384.0, 0.00441726
386.0, 0.00150379
388.0, 0.00123148
390.0, 0.00158506
392.0, 0.00374737
394.0, 0.00177109
396.0, 0.00065511
398.0, 0.00278208
400.0, 0.000372105
402.0, 0.000918071
404.0, 0.00224419
406.0, 0.00116264
408.0, 0.000123475
410.0, 0.00139417
412.0, 0.0021095
414.0, 0.00334777
416.0, 0.00205209
418.0, 0.00174987
420.0, 0.00163888
422.0, 0.00282196
424.0, 0.00356085
426.0, 0.00388756
428.0, 0.00265907
430.0, 0.00368216
432.0, 0.0036113
434.0, 0.00491111
436.0, 0.00404877
438.0, 0.0055499
440.0, 0.00688779
442.0, 0.00446173
444.0, 0.0043295
446.0, 0.00611096
448.0, 0.00524933
450.0, 0.00413899
452.0, 0.00429678
454.0, 0.00413673
456.0, 0.00392771
458.0, 0.00364418
460.0, 0.00396324
462.0, 0.00491634
464.0, 0.00383899
466.0, 0.0035941
468.0, 0.00399055
470.0, 0.00350111
472.0, 0.00357303
474.0, 0.00363897
476.0, 0.00366335
478.0, 0.00356155
480.0, 0.00347168
482.0, 0.0028443
484.0, 0.00335904
486.0, 0.00198966
488.0, 0.00373579
490.0, 0.00281898
492.0, 0.00240824
494.0, 0.000888592
496.0, 0.00120724
498.0, 0.000795124
500.0, 0.00263872
502.0, 0.00140517
504.0, 0.00179211
506.0, 0.00178123
508.0, 0.000359966
510.0, 0.000457776
512.0, 0.000988821
514.0, 0.00184005
516.0, 0.00115869
518.0, 0.000551473
520.0, 0.00107397
522.0, 0.000443033
524.0, 0.000257492
526.0, 0.00182313
528.0, 0.000780191
530.0, 0.000430783
532.0, 0.000806082
534.0, 0.000634276
536.0, 0.000397529
538.0, 0.00136292
540.0, 0.00155101
542.0, 0.000537728
544.0, 0.000496152
546.0, 0.0017705
548.0, 0.0022689
550.0, 0.00159429
552.0, 0.00060031
554.0, 0.0016785
556.0, 0.00170185
558.0, 0.00122249
560.0, 0.00152132
562.0, 0.000505483
564.0, 0.00150714
566.0, 0.00148936
568.0, 0.00124296
570.0, 0.000383426
572.0, 0.000673325
574.0, 0.00198676
576.0, 0.00183555
578.0, 0.00144189
580.0, 0.00192948
582.0, 0.00358903
584.0, 0.00253867
586.0, 0.0026496
588.0, 0.00488345
590.0, 0.0020854
592.0, 0.00371612
594.0, 0.0048365
596.0, 0.00599244
598.0, 0.00640665
600.0, 0.00653187
602.0, 0.00807978
604.0, 0.00790636
606.0, 0.0095674
608.0, 0.0116865
610.0, 0.0104479
612.0, 0.0125498
614.0, 0.0139572
616.0, 0.0138126
618.0, 0.0182453
620.0, 0.0189215
622.0, 0.019934
624.0, 0.0198334
626.0, 0.0222632
628.0, 0.0237586
630.0, 0.0264004
632.0, 0.0266629
634.0, 0.0286203
636.0, 0.0291585
638.0, 0.0302577
640.0, 0.0275756
642.0, 0.0263264
644.0, 0.0265586
646.0, 0.0256191
648.0, 0.0239488
650.0, 0.021987
652.0, 0.0169973
654.0, 0.0161394
656.0, 0.0159551
658.0, 0.012621
660.0, 0.0106199
662.0, 0.00914749
664.0, 0.00969946
666.0, 0.00767017
668.0, 0.00908457
670.0, 0.00586559
672.0, 0.00613578
674.0, 0.00494254
676.0, 0.00682985
678.0, 0.00524731
680.0, 0.0024115
682.0, 0.00341783
684.0, 0.00259856
686.0, 0.000874601
688.0, 0.00170205
690.0, 0.000986021
692.0, 0.00115315
694.0, 0.000680088
696.0, 0.000278319
698.0, 0.000210715
700.0, 0.00208456
702.0, 0.00141195
704.0, 0.00221689
706.0, 0.00176825
708.0, 0.00176059
710.0, 0.00202084
712.0, 0.00293454
714.0, 0.00355309
716.0, 0.00476918
718.0, 0.00212664
720.0, 0.00321933
722.0, 0.0020774
724.0, 0.00301566
726.0, 0.00140365
728.0, 0.00201871
730.0, 0.00087964
732.0, 0.000172991
734.0, 0.000469053
736.0, 0.000720148
738.0, 0.00178611
740.0, 0.00152406
742.0, 0.000434327
744.0, 0.00143284
746.0, 0.00091012
748.0, 0.00162472
750.0, 0.00143054
752.0, 0.00176318
754.0, 0.00276165
756.0, 0.00192832
758.0, 0.00211267
760.0, 0.00231402
762.0, 0.0022126
764.0, 0.00100563
766.0, 0.000514392
768.0, 0.000707015
770.0, 0.00208761
772.0, 0.00226035
774.0, 0.00231999
776.0, 0.000807596
778.0, 0.0010411
780.0, 0.00198843
782.0, 0.00177364
784.0, 0.00113695
786.0, 0.0025688
788.0, 0.00217908
790.0, 0.00283784
792.0, 0.00354707
794.0, 0.00164399
796.0, 0.00193554
798.0, 0.00204086
800.0, 0.000592202
802.0, 0.00118766
804.0, 0.000244516
806.0, 0.000316942
808.0, 0.000860067
810.0, 0.00292835
812.0, 0.00254668
814.0, 0.00132621
816.0, 0.00258422
818.0, 0.00331917
820.0, 0.00171953
822.0, 0.00283771
824.0, 0.000895826
826.0, 0.000111913
828.0, 0.00149851
830.0, 0.00155934
832.0, 0.00216222
834.0, 0.000995981
836.0, 0.00178717
838.0, 0.00130004
840.0, 0.0015804
842.0, 0.00119407
844.0, 0.000924868
846.0, 0.00213438
848.0, 0.00151639
850.0, 0.00160446
852.0, 9.53578e-05
854.0, 0.00141924
856.0, 0.002077
858.0, 0.00201009
860.0, 0.0021059
862.0, 0.000983284
864.0, 0.000520445
866.0, 0.000596124
868.0, 0.000802207
870.0, 0.000906768
872.0, 0.00144733
874.0, 0.000165539
876.0, 0.00246379
878.0, 0.000435766
880.0, 0.00176486
882.0, 0.00110336
884.0, 0.000423751
886.0, 0.00134865
888.0, 0.00053084
890.0, 0.00131637
892.0, 0.000251479
894.0, 0.00041222
896.0, 1.71067e-05
898.0, 0.000658572
900.0, 0.000879208
902.0, 0.00105814
904.0, 0.000846021
906.0, 0.000911142
908.0, 0.000973645
910.0, 0.00223363
912.0, 0.00161503
914.0, 0.00198415
916.0, 0.000816762
918.0, 0.000112006
920.0, 0.00166506
922.0, 0.00268202
924.0, 0.00101446
926.0, 0.00167692
928.0, 0.00240882
930.0, 0.00216145
932.0, 0.0023441
934.0, 0.00269117
936.0, 0.0017062
938.0, 0.00318852
940.0, 0.00359343
942.0, 0.00421143
944.0, 0.00414833
946.0, 0.00218597
948.0, 0.0029162
950.0, 0.00449733
952.0, 0.00328888
954.0, 0.00393205
956.0, 0.00182802
958.0, 0.00444805
960.0, 0.00382994
962.0, 0.00334743
964.0, 0.00298306
966.0, 0.00286899
968.0, 0.0031737
970.0, 0.00281624
972.0, 0.00337647
974.0, 0.00477241
976.0, 0.00417821
978.0, 0.00282376
980.0, 0.00249587
982.0, 0.00323337
984.0, 0.00269032
986.0, 0.0034125
988.0, 0.000381151
990.0, 0.00075476
992.0, 0.000976787
994.0, 0.00026354
996.0, 0.000532592
998.0, 0.00249168
1000.0, 0.000803258
1002.0, 0.00216558
1004.0, 0.00177537
1006.0, 0.00268707
1008.0, 0.00231591
1010.0, 0.00232404
1012.0, 0.00227765
1014.0, 0.00269042
1016.0, 0.00114765
1018.0, 0.00254248
1020.0, 0.00155172
1022.0, 0.000354176
1024.0, 0.000312869
1026.0, 0.000662439
1028.0, 0.00168909
1030.0, 0.00151986
1032.0, 0.00228519
1034.0, 0.00215858
1036.0, 0.00260059
1038.0, 0.00224999
1040.0, 0.000278816
1042.0, 0.00101477
1044.0, 0.00264338
1046.0, 0.00315709
1048.0, 0.000420879
1050.0, 0.00151134
1052.0, 0.000796647
1054.0, 0.0012622
1056.0, 0.000764941
1058.0, 0.00215825
1060.0, 0.000679169
1062.0, 0.000645245
1064.0, 0.000992928
1066.0, 0.000916894
1068.0, 0.00145257
1070.0, 0.00169597
1072.0, 0.0019452
1074.0, 0.00187328
1076.0, 0.000356776
1078.0, 0.00135407
1080.0, 0.00216856
1082.0, 0.00127393
1084.0, 0.00108953
1086.0, 0.00137174
1088.0, 0.00203411
1090.0, 0.000865112
1092.0, 0.000973737
1094.0, 0.00138486
1096.0, 0.00120712
1098.0, 0.00153484
1100.0, 0.000526497
1102.0, 0.00110183
1104.0, 0.0010303
1106.0, 0.000729939
1108.0, 0.00211324
1110.0, 0.00143452
1112.0, 0.0018175
1114.0, 0.00064578
1116.0, 0.000142524
1118.0, 0.00197754
1120.0, 0.00130632
1122.0, 0.000483729
1124.0, 0.00102165
1126.0, 0.00228468
1128.0, 0.00169376
1130.0, 0.00227131
1132.0, 0.00133552
1134.0, 0.000868911
1136.0, 0.00218876
1138.0, 0.000292047
1140.0, 0.00150447
1142.0, 0.00129434
1144.0, 0.000296476
1146.0, 0.00118716
1148.0, 0.00155608
1150.0, 0.00209866
1152.0, 0.00140277
1154.0, 0.00185218
1156.0, 0.00186827
1158.0, 0.00166241
1160.0, 0.00138677
1162.0, 0.00162424
1164.0, 0.00198571
1166.0, 0.0018888
1168.0, 0.00268835
1170.0, 0.00210729
1172.0, 0.00188816
1174.0, 0.00201143
1176.0, 0.00194679
1178.0, 0.0028482
1180.0, 0.00243059
1182.0, 0.00310886
1184.0, 0.00387737
1186.0, 0.0019026
1188.0, 0.00189905
1190.0, 0.00311014
1192.0, 0.00341138
1194.0, 0.00352567
1196.0, 0.00226496
1198.0, 0.00290793
1200.0, 0.00257393
1202.0, 0.00208255
1204.0, 0.00172944
1206.0, 0.00162065
1208.0, 0.00133769
1210.0, 0.00293471
1212.0, 0.0026454
1214.0, 0.00180272
1216.0, 0.00350356
1218.0, 0.00474504
1220.0, 0.00226755
1222.0, 0.00472271
1224.0, 0.00418928
1226.0, 0.00220122
1228.0, 0.00280429
1230.0, 0.00374385
1232.0, 0.00378474
1234.0, 0.00337274
1236.0, 0.00190242
1238.0, 0.000781086
1240.0, 0.00245287
1242.0, 0.00219536
1244.0, 0.00300562
1246.0, 0.00321814
1248.0, 0.00257797
1250.0, 0.00275316
1252.0, 0.00265209
1254.0, 0.00350846
1256.0, 0.00121667
1258.0, 0.000949146
1260.0, 0.00168621
1262.0, 0.00131116
1264.0, 0.000850653
1266.0, 0.00167372
1268.0, 0.000519166
1270.0, 0.00160621
1272.0, 6.31121e-05
1274, 0.0
1276, 0.0
1278, 0.0
1280, 0.0
1282, 0.0
1284, 0.0
1286, 0.0
1288, 0.0
1290, 0.0
1292, 0.0
1294, 0.0
1296, 0.0
1298, 0.0
1300, 0.0
1302, 0.0
1304, 0.0
1306, 0.0
1308, 0.0
1310, 0.0
1312, 0.0
1314, 0.0
1316, 0.0
1318, 0.0
1320, 0.0
1322, 0.0
1324, 0.0
1326, 0.0
1328, 0.0
1330, 0.0
1332, 0.0
1334, 0.0
1336, 0.0
1338, 0.0
1340, 0.0
1342, 0.0
1344, 0.0
1346, 0.0
1348, 0.0
1350, 0.0
1352, 0.0
1354, 0.0
1356, 0.0
1358, 0.0
1360, 0.0
1362, 0.0
1364, 0.0
1366, 0.0
1368, 0.0
1370, 0.0
1372, 0.0
1374, 0.0
1376, 0.0
1378, 0.0
1380, 0.0
1382, 0.0
1384, 0.0
1386, 0.0
1388, 0.0
1390, 0.0
1392, 0.0
1394, 0.0
1396, 0.0
1398, 0.0
1400, 0.0
1402, 0.0
1404, 0.0
1406, 0.0
1408, 0.0
1410, 0.0
1412, 0.0
1414, 0.0
1416, 0.0
1418, 0.0
1420, 0.0
1422, 0.0
1424, 0.0
1426, 0.0
1428, 0.0
1430, 0.0
1432, 0.0
1434, 0.0
1436, 0.0
1438, 0.0
1440, 0.0
1442, 0.0
1444, 0.0
1446, 0.0
1448, 0.0
1450, 0.0
1452, 0.0
1454, 0.0
1456, 0.0
1458, 0.0
1460, 0.0
1462, 0.0
1464, 0.0
1466, 0.0
1468, 0.0
1470, 0.0
1472, 0.0
1474, 0.0
1476, 0.0
1478, 0.0
1480, 0.0
1482, 0.0
1484, 0.0
1486, 0.0
1488, 0.0
1490, 0.0
1492, 0.0
1494, 0.0
1496, 0.0
1498, 0.0
1500, 0.0
1502, 0.0
1504, 0.0
1506, 0.0
1508, 0.0
1510, 0.0
1512, 0.0
1514, 0.0
1516, 0.0
1518, 0.0
1520, 0.0
1522, 0.0
1524, 0.0
1526, 0.0
1528, 0.0
1530, 0.0
1532, 0.0
1534, 0.0
1536, 0.0
1538, 0.0
1540, 0.0
1542, 0.0
1544, 0.0
1546, 0.0
1548, 0.0
1550, 0.0
1552, 0.0
1554, 0.0
1556, 0.0
1558, 0.0
1560, 0.0
1562, 0.0
1564, 0.0
1566, 0.0
1568, 0.0
1570, 0.0
1572, 0.0
1574, 0.0
1576, 0.0
1578, 0.0
1580, 0.0
1582, 0.0
1584, 0.0
1586, 0.0
1588, 0.0
1590, 0.0
1592, 0.0
1594, 0.0
1596, 0.0
1598, 0.0
1599, 0.0