File: raw data/Dataset_2/Ferrokesterite/Ferrokesterite__R060870__Raman__532__0__unoriented__Raman_Data_Processed__14123.txt
30, 0.0
32, 0.0
34, 0.0
36, 0.0
38, 0.0
40, 0.0
42, 0.0
44, 0.0
46, 0.0
48, 0.0
50, 0.0
52, 0.0
54, 0.0
56, 0.0
58, 0.0
60, 0.0
62, 0.0
64, 0.0
66, 0.0
68, 0.0
70, 0.0
72, 0.0
74, 0.0
76, 0.0
78, 0.0
80, 0.0
82, 0.0
84, 0.0
86, 0.0
88, 0.0
90, 0.0
92, 0.0
94, 0.0
96, 0.0
98, 0.0
100, 0.0
102, 0.0
104, 0.0
106, 0.0
108, 0.0
110, 0.0
112, 0.0
114, 0.0
116, 0.0
118, 0.0
120, 0.0
122, 0.0
124, 0.0
126, 0.0
128, 0.0
130, 0.0
132, 0.0
134, 0.0
136, 0.0
138, 0.0
140.0, 0.0187561
142.0, 0.0124944
144.0, 0.00833114
146.0, 0.0221609
148.0, 0.0435668
150.0, 0.005715
152.0, 0.0284731
154.0, 0.0328282
156.0, 0.045084
158.0, 0.0328256
160.0, 0.00393696
162.0, 0.0184433
164.0, 0.02653
166.0, 0.0243955
168.0, 0.0186927
170.0, 0.0334756
172.0, 0.0220255
174.0, 0.022727
176.0, 0.010849
178.0, 0.0152884
180.0, 0.0157541
182.0, 0.0189369
184.0, 0.024147
186.0, 0.0170808
188.0, 0.00377076
190.0, 0.00500109
192.0, 0.00905778
194.0, 0.00467103
196.0, 0.00572565
198.0, 0.0134482
200.0, 0.0201174
202.0, 0.0150696
204.0, 0.00822583
206.0, 0.00655373
208.0, 0.0154137
210.0, 0.0159352
212.0, 0.00982001
214.0, 0.0206926
216.0, 0.00685878
218.0, 0.0149675
220.0, 0.0184696
222.0, 0.00778667
224.0, 0.0125332
226.0, 0.00480237
228.0, 0.0103941
230.0, 0.0111784
232.0, 0.0139694
234.0, 0.0101756
236.0, 0.0204149
238.0, 0.0176381
240.0, 0.00260231
242.0, 0.0564808
244.0, 0.0355747
246.0, 0.0438245
248.0, 0.0641681
250.0, 0.0640884
252.0, 0.0434095
254.0, 0.0340723
256.0, 0.0251334
258.0, 0.0199708
260.0, 0.0239288
262.0, 0.00975125
264.0, 0.0183095
266.0, 0.0170102
268.0, 0.0486986
270.0, 0.0373083
272.0, 0.0394152
274.0, 0.0499459
276.0, 0.0629569
278.0, 0.0816076
280.0, 0.104885
282.0, 0.123755
284.0, 0.146158
286.0, 0.125087
288.0, 0.126273
290.0, 0.0976724
292.0, 0.0973464
294.0, 0.0901059
296.0, 0.121732
298.0, 0.108974
300.0, 0.106645
302.0, 0.125555
304.0, 0.153299
306.0, 0.217933
308.0, 0.270818
310.0, 0.369127
312.0, 0.506123
314.0, 0.635173
316.0, 0.779554
318.0, 0.916726
320.0, 0.995077
322.0, 0.957969
324.0, 0.862032
326.0, 0.724535
328.0, 0.599582
330.0, 0.451393
332.0, 0.337039
334.0, 0.278951
336.0, 0.245499
338.0, 0.234597
340.0, 0.22078
342.0, 0.193489
344.0, 0.144335
346.0, 0.128765
348.0, 0.116523
350.0, 0.114573
352.0, 0.0998117
354.0, 0.101673
356.0, 0.0894108
358.0, 0.0669595
360.0, 0.0752155
362.0, 0.0809383
364.0, 0.0487055
366.0, 0.0284983
368.0, 0.0221025
370.0, 0.0221446
372.0, 0.00794954
374.0, 0.00355702
376.0, 0.00879963
378.0, 0.000282524
380.0, 0.00789195
382.0, 0.011426
384.0, 0.00843068
386.0, 0.00303174
388.0, 0.00587604
390.0, 0.00861531
392.0, 0.00126418
394.0, 0.00915117
396.0, 0.00598736
398.0, 0.00513377
400.0, 0.00544417
402.0, 0.00191917
404.0, 0.00690574
406.0, 0.0041367
408.0, 0.0199343
410.0, 0.00214249
412.0, 0.00361169
414.0, 0.0199071
416.0, 0.00731632
418.0, 0.012373
420.0, 0.00858763
422.0, 0.00217079
424.0, 0.00822167
426.0, 0.030956
428.0, 0.0210547
430.0, 0.00138452
432.0, 0.0068854
434.0, 0.029798
436.0, 0.0197714
438.0, 0.0101132
440.0, 0.0294794
442.0, 0.0201445
444.0, 0.0158611
446.0, 0.0249093
448.0, 0.0170459
450.0, 0.024373
452.0, 0.0190569
454.0, 0.0141076
456.0, 0.033973
458.0, 0.0204179
460.0, 0.0388641
462.0, 0.0337869
464.0, 0.0300392
466.0, 0.0401748
468.0, 0.025362
470.0, 0.0271973
472.0, 0.0260744
474.0, 0.0502085
476.0, 0.0342176
478.0, 0.0361035
480.0, 0.0332363
482.0, 0.0122977
484.0, 0.0172075
486.0, 0.0114563
488.0, 0.0157918
490.0, 0.0276525
492.0, 0.0193239
494.0, 0.00177645
496.0, 0.00460631
498.0, 0.00298132
500.0, 0.0163079
502.0, 0.00500853
504.0, 0.00337199
506.0, 0.0214529
508.0, 0.0214598
510.0, 0.0117967
512.0, 0.0014088
514.0, 0.0125478
516.0, 0.0217068
518.0, 0.0163199
520.0, 0.00782656
522.0, 0.00136515
524.0, 0.0133965
526.0, 0.0189405
528.0, 0.00784264
530.0, 0.008974
532.0, 0.0035493
534.0, 0.00608243
536.0, 0.00659753
538.0, 0.00290433
540.0, 0.0232026
542.0, 0.0215466
544.0, 0.00890269
546.0, 0.0234786
548.0, 0.0127192
550.0, 0.0239216
552.0, 0.0118383
554.0, 0.0044403
556.0, 0.0157756
558.0, 0.00543263
560.0, 0.0089756
562.0, 0.0130603
564.0, 0.0120358
566.0, 0.0123504
568.0, 0.00377514
570.0, 0.0126647
572.0, 0.017465
574.0, 0.0241942
576.0, 0.00415662
578.0, 0.0140809
580.0, 0.0048208
582.0, 0.0305826
584.0, 0.0106839
586.0, 0.0200286
588.0, 0.00863487
590.0, 0.00834353
592.0, 0.00353048
594.0, 0.00942186
596.0, 0.00889063
598.0, 0.0121894
600.0, 0.0335888
602.0, 0.0244545
604.0, 0.0212852
606.0, 0.0129229
608.0, 0.0176644
610.0, 0.0232382
612.0, 0.0204581
614.0, 0.0132912
616.0, 0.0158172
618.0, 0.030112
620.0, 0.00831815
622.0, 0.0492147
624.0, 0.0258733
626.0, 0.0246815
628.0, 0.0290344
630.0, 0.0497184
632.0, 0.0468802
634.0, 0.0363398
636.0, 0.0361148
638.0, 0.0433354
640.0, 0.0448245
642.0, 0.0452498
644.0, 0.022602
646.0, 0.0270904
648.0, 0.0372821
650.0, 0.0469138
652.0, 0.0226109
654.0, 0.0386414
656.0, 0.0306675
658.0, 0.0271931
660.0, 0.0249575
662.0, 0.0225565
664.0, 0.0239877
666.0, 0.0159162
668.0, 0.0116608
670.0, 0.0301021
672.0, 0.0124203
674.0, 0.022222
676.0, 0.036024
678.0, 0.0521156
680.0, 0.00781412
682.0, 0.0230207
684.0, 0.0236995
686.0, 0.0177505
688.0, 0.00451169
690.0, 0.0234615
692.0, 0.00858164
694.0, 0.0208169
696.0, 0.0118892
698.0, 0.00328363
700.0, 0.0108146
702.0, 0.0201266
704.0, 0.0123227
706.0, 0.0124828
708.0, 0.0210692
710.0, 0.0246412
712.0, 0.00463587
714.0, 0.0111496
716.0, 0.0162575
718.0, 0.0183418
720.0, 0.0141622
722.0, 0.01962
724.0, 0.00703914
726.0, 0.017415
728.0, 0.00898786
730.0, 0.0173714
732.0, 0.0222483
734.0, 0.00487461
736.0, 0.0117936
738.0, 0.0157143
740.0, 0.00430757
742.0, 0.00784115
744.0, 0.016238
746.0, 0.0118589
748.0, 0.0108518
750.0, 0.00290387
752.0, 0.0141717
754.0, 0.00172662
756.0, 0.0128105
758.0, 0.0204855
760.0, 0.00470019
762.0, 0.0193073
764.0, 0.0221628
766.0, 0.0268554
768.0, 0.0222401
770.0, 0.0265194
772.0, 0.0101035
774.0, 0.0118667
776.0, 0.00518933
778.0, 0.0314589
780.0, 0.0242557
782.0, 0.00829644
784.0, 0.0166481
786.0, 0.00281762
788.0, 0.0175692
790.0, 0.0182232
792.0, 0.0110241
794.0, 0.0344905
796.0, 0.0273246
798.0, 0.0105989
800.0, 0.0185283
802.0, 0.0257468
804.0, 0.0179077
806.0, 0.00407077
808.0, 0.0227213
810.0, 0.0123457
812.0, 0.0222073
814.0, 0.0046024
816.0, 0.0177884
818.0, 0.00294024
820.0, 0.0164859
822.0, 0.0214947
824.0, 0.00528802
826.0, 0.0107982
828.0, 0.0302608
830.0, 0.0211668
832.0, 0.0289718
834.0, 0.012511
836.0, 0.0280954
838.0, 0.0200351
840.0, 0.0305264
842.0, 0.0247818
844.0, 0.0204274
846.0, 0.015162
848.0, 0.0195919
850.0, 0.0142825
852.0, 0.0161179
854.0, 0.00544147
856.0, 0.0121485
858.0, 0.0192231
860.0, 0.0037629
862.0, 0.0189735
864.0, 0.00313183
866.0, 0.00518543
868.0, 0.0140983
870.0, 0.0150214
872.0, 0.00274235
874.0, 0.00956342
876.0, 0.0203524
878.0, 0.00934794
880.0, 0.00118141
882.0, 0.0188425
884.0, 0.0162739
886.0, 0.00728101
888.0, 0.025388
890.0, 0.00994954
892.0, 0.014347
894.0, 0.0122642
896.0, 0.00904162
898.0, 0.00628613
900.0, 0.0140034
902.0, 0.0129577
904.0, 0.00269047
906.0, 0.0225413
908.0, 0.0103771
910.0, 0.0267167
912.0, 0.0150856
914.0, 0.016815
916.0, 0.0122322
918.0, 0.00181843
920.0, 0.0189433
922.0, 0.00277248
924.0, 0.0116857
926.0, 0.0096589
928.0, 0.00425976
930.0, 0.0201577
932.0, 0.00423315
934.0, 0.00187941
936.0, 0.024769
938.0, 0.00199928
940.0, 0.0145602
942.0, 0.0096419
944.0, 0.0140739
946.0, 0.0176614
948.0, 0.0134735
950.0, 0.00423637
952.0, 0.016871
954.0, 0.0272281
956.0, 0.0249879
958.0, 0.0124638
960.0, 0.0187495
962.0, 0.0214844
964.0, 0.0290439
966.0, 0.0200206
968.0, 0.010263
970.0, 0.0241577
972.0, 0.00468496
974.0, 0.0259287
976.0, 0.0126479
978.0, 0.017207
980.0, 0.0172757
982.0, 0.0174905
984.0, 0.00950417
986.0, 0.0225277
988.0, 0.00346983
990.0, 0.0247763
992.0, 0.0254365
994.0, 0.00529708
996.0, 0.0147867
998.0, 0.00846113
1000.0, 0.008592
1002.0, 0.0116636
1004.0, 0.000938063
1006.0, 0.0112575
1008.0, 0.00488142
1010.0, 0.0150596
1012.0, 0.011908
1014.0, 0.0073085
1016.0, 0.00507687
1018.0, 0.0108099
1020.0, 0.0178003
1022.0, 0.00229084
1024.0, 0.00561456
1026.0, 0.0221235
1028.0, 0.0213214
1030.0, 0.0330646
1032.0, 0.0222826
1034.0, 0.00980363
1036.0, 0.0225223
1038.0, 0.0225175
1040.0, 0.0183583
1042.0, 0.0196536
1044.0, 0.0224279
1046.0, 0.022275
1048.0, 0.0179232
1050.0, 0.010838
1052.0, 0.0345158
1054.0, 0.0150174
1056.0, 0.0205378
1058.0, 0.0126521
1060.0, 0.0168008
1062.0, 0.0132514
1064.0, 0.0224
1066.0, 0.0147833
1068.0, 0.0192994
1070.0, 0.00872929
1072.0, 0.0129966
1074.0, 0.00288951
1076.0, 0.0110803
1078.0, 0.0299832
1080.0, 0.0186926
1082.0, 0.00694973
1084.0, 0.00352742
1086.0, 0.0112777
1088.0, 0.0193967
1090.0, 0.0234291
1092.0, 0.0148078
1094.0, 0.0269805
1096.0, 0.00215484
1098.0, 0.0137925
1100.0, 0.0353273
1102.0, 0.014798
1104.0, 0.0288163
1106.0, 0.0279633
1108.0, 0.0296739
1110.0, 0.0250085
1112.0, 0.00771219
1114.0, 0.0259126
1116.0, 0.0266772
1118.0, 0.0177218
1120.0, 0.0121606
1122.0, 0.0170948
1124.0, 0.0220971
1126.0, 0.0170101
1128.0, 0.0212912
1130.0, 0.0253054
1132.0, 0.0147002
1134.0, 0.0105862
1136.0, 0.0112353
1138.0, 0.0294766
1140.0, 0.0230143
1142.0, 0.0028563
1144.0, 0.0215817
1146.0, 0.000897615
1148.0, 0.0282107
1150.0, 0.0328939
1152.0, 0.0131023
1154.0, 0.0030454
1156.0, 0.0181938
1158.0, 0.0184319
1160.0, 0.00541519
1162.0, 0.021138
1164.0, 0.0134267
1166.0, 0.00788169
1168.0, 0.0243037
1170.0, 0.0187019
1172.0, 0.0136438
1174.0, 0.00370807
1176.0, 0.0212527
1178.0, 0.0179949
1180.0, 0.0140519
1182.0, 0.0150638
1184.0, 0.00629424
1186.0, 0.0150316
1188.0, 0.027148
1190.0, 0.025032
1192.0, 0.0200088
1194.0, 0.00483294
1196.0, 0.00317827
1198.0, 0.0172686
1200.0, 0.0161368
1202.0, 0.0189309
1204.0, 0.00235798
1206.0, 0.019407
1208.0, 0.0133878
1210.0, 0.0144163
1212.0, 0.0100248
1214.0, 0.0308762
1216.0, 0.0160171
1218.0, 0.0238085
1220.0, 0.0133002
1222.0, 0.0170039
1224.0, 0.00544403
1226.0, 0.0117603
1228.0, 0.0164493
1230.0, 0.00265839
1232.0, 0.0168827
1234.0, 0.0143879
1236.0, 0.0102255
1238.0, 0.0291471
1240.0, 0.0267245
1242.0, 0.0215449
1244.0, 0.0244943
1246.0, 0.0126654
1248.0, 0.0251305
1250.0, 0.0222527
1252.0, 0.0195654
1254.0, 0.0213515
1256.0, 0.0223893
1258.0, 0.0297355
1260.0, 0.0344094
1262.0, 0.00538368
1264, 0.0
1266, 0.0
1268, 0.0
1270, 0.0
1272, 0.0
1274, 0.0
1276, 0.0
1278, 0.0
1280, 0.0
1282, 0.0
1284, 0.0
1286, 0.0
1288, 0.0
1290, 0.0
1292, 0.0
1294, 0.0
1296, 0.0
1298, 0.0
1300, 0.0
1302, 0.0
1304, 0.0
1306, 0.0
1308, 0.0
1310, 0.0
1312, 0.0
1314, 0.0
1316, 0.0
1318, 0.0
1320, 0.0
1322, 0.0
1324, 0.0
1326, 0.0
1328, 0.0
1330, 0.0
1332, 0.0
1334, 0.0
1336, 0.0
1338, 0.0
1340, 0.0
1342, 0.0
1344, 0.0
1346, 0.0
1348, 0.0
1350, 0.0
1352, 0.0
1354, 0.0
1356, 0.0
1358, 0.0
1360, 0.0
1362, 0.0
1364, 0.0
1366, 0.0
1368, 0.0
1370, 0.0
1372, 0.0
1374, 0.0
1376, 0.0
1378, 0.0
1380, 0.0
1382, 0.0
1384, 0.0
1386, 0.0
1388, 0.0
1390, 0.0
1392, 0.0
1394, 0.0
1396, 0.0
1398, 0.0
1400, 0.0
1402, 0.0
1404, 0.0
1406, 0.0
1408, 0.0
1410, 0.0
1412, 0.0
1414, 0.0
1416, 0.0
1418, 0.0
1420, 0.0
1422, 0.0
1424, 0.0
1426, 0.0
1428, 0.0
1430, 0.0
1432, 0.0
1434, 0.0
1436, 0.0
1438, 0.0
1440, 0.0
1442, 0.0
1444, 0.0
1446, 0.0
1448, 0.0
1450, 0.0
1452, 0.0
1454, 0.0
1456, 0.0
1458, 0.0
1460, 0.0
1462, 0.0
1464, 0.0
1466, 0.0
1468, 0.0
1470, 0.0
1472, 0.0
1474, 0.0
1476, 0.0
1478, 0.0
1480, 0.0
1482, 0.0
1484, 0.0
1486, 0.0
1488, 0.0
1490, 0.0
1492, 0.0
1494, 0.0
1496, 0.0
1498, 0.0
1500, 0.0
1502, 0.0
1504, 0.0
1506, 0.0
1508, 0.0
1510, 0.0
1512, 0.0
1514, 0.0
1516, 0.0
1518, 0.0
1520, 0.0
1522, 0.0
1524, 0.0
1526, 0.0
1528, 0.0
1530, 0.0
1532, 0.0
1534, 0.0
1536, 0.0
1538, 0.0
1540, 0.0
1542, 0.0
1544, 0.0
1546, 0.0
1548, 0.0
1550, 0.0
1552, 0.0
1554, 0.0
1556, 0.0
1558, 0.0
1560, 0.0
1562, 0.0
1564, 0.0
1566, 0.0
1568, 0.0
1570, 0.0
1572, 0.0
1574, 0.0
1576, 0.0
1578, 0.0
1580, 0.0
1582, 0.0
1584, 0.0
1586, 0.0
1588, 0.0
1590, 0.0
1592, 0.0
1594, 0.0
1596, 0.0
1598, 0.0
1599, 0.0