File: raw data/Dataset_2/GlassTb/GlassTb__R110081__Raman__532__0__unoriented__Raman_Data_Processed__35500.txt
30, 0.0
32, 0.0
34, 0.0
36, 0.0
38, 0.0
40, 0.0
42, 0.0
44, 0.0
46, 0.0
48, 0.0
50, 0.0
52, 0.0
54, 0.0
56, 0.0
58, 0.0
60, 0.0
62, 0.0
64, 0.0
66, 0.0
68, 0.0
70, 0.0
72, 0.0
74, 0.0
76, 0.0
78, 0.0
80, 0.0
82, 0.0
84, 0.0
86, 0.0
88, 0.0
90, 0.0
92.0, 0.0193357
94.0, 0.0207462
96.0, 0.0167128
98.0, 0.017796
100.0, 0.0144289
102.0, 0.0147798
104.0, 0.0138132
106.0, 0.0105552
108.0, 0.0103551
110.0, 0.00905972
112.0, 0.0101044
114.0, 0.00930021
116.0, 0.00705629
118.0, 0.00585566
120.0, 0.00699389
122.0, 0.00511411
124.0, 0.00458017
126.0, 0.00354794
128.0, 0.00635606
130.0, 0.00165243
132.0, 0.000418487
134.0, 0.00328515
136.0, 0.000457032
138.0, 0.000553548
140.0, 0.0013057
142.0, 0.00185422
144.0, 0.000644814
146.0, 0.00360211
148.0, 0.00593094
150.0, 0.0138402
152.0, 0.0227832
154.0, 0.0386731
156.0, 0.0573914
158.0, 0.0807976
160.0, 0.105553
162.0, 0.125215
164.0, 0.148849
166.0, 0.17328
168.0, 0.196535
170.0, 0.222136
172.0, 0.247672
174.0, 0.273132
176.0, 0.304072
178.0, 0.328441
180.0, 0.34011
182.0, 0.351502
184.0, 0.360045
186.0, 0.36627
188.0, 0.371438
190.0, 0.373629
192.0, 0.378279
194.0, 0.382822
196.0, 0.385986
198.0, 0.391424
200.0, 0.40191
202.0, 0.401661
204.0, 0.405989
206.0, 0.410252
208.0, 0.412792
210.0, 0.412833
212.0, 0.417233
214.0, 0.418626
216.0, 0.424656
218.0, 0.426731
220.0, 0.430368
222.0, 0.433495
224.0, 0.437091
226.0, 0.43598
228.0, 0.442702
230.0, 0.444322
232.0, 0.450237
234.0, 0.453954
236.0, 0.457805
238.0, 0.461551
240.0, 0.462434
242.0, 0.464646
244.0, 0.469146
246.0, 0.471099
248.0, 0.478127
250.0, 0.481617
252.0, 0.485383
254.0, 0.490433
256.0, 0.494246
258.0, 0.501066
260.0, 0.50538
262.0, 0.508229
264.0, 0.51574
266.0, 0.520785
268.0, 0.527539
270.0, 0.530264
272.0, 0.539891
274.0, 0.549635
276.0, 0.554727
278.0, 0.563686
280.0, 0.568753
282.0, 0.577203
284.0, 0.584772
286.0, 0.589583
288.0, 0.600173
290.0, 0.612663
292.0, 0.624193
294.0, 0.63746
296.0, 0.646463
298.0, 0.662651
300.0, 0.676652
302.0, 0.69146
304.0, 0.706528
306.0, 0.720882
308.0, 0.736525
310.0, 0.755486
312.0, 0.774256
314.0, 0.790541
316.0, 0.806523
318.0, 0.824268
320.0, 0.84199
322.0, 0.857907
324.0, 0.875375
326.0, 0.889113
328.0, 0.904119
330.0, 0.924032
332.0, 0.936688
334.0, 0.950509
336.0, 0.967533
338.0, 0.975877
340.0, 0.984355
342.0, 0.98832
344.0, 0.993864
346.0, 0.993564
348.0, 0.997869
350.0, 0.99956
352.0, 0.99755
354.0, 0.99575
356.0, 0.993737
358.0, 0.988336
360.0, 0.980572
362.0, 0.967677
364.0, 0.959198
366.0, 0.953191
368.0, 0.938693
370.0, 0.928356
372.0, 0.916305
374.0, 0.904359
376.0, 0.888456
378.0, 0.873433
380.0, 0.864525
382.0, 0.854027
384.0, 0.841747
386.0, 0.833949
388.0, 0.821327
390.0, 0.813281
392.0, 0.803601
394.0, 0.796056
396.0, 0.790214
398.0, 0.783522
400.0, 0.777338
402.0, 0.770473
404.0, 0.76434
406.0, 0.761424
408.0, 0.755602
410.0, 0.751908
412.0, 0.755233
414.0, 0.752418
416.0, 0.74638
418.0, 0.740164
420.0, 0.736759
422.0, 0.735247
424.0, 0.73427
426.0, 0.730885
428.0, 0.73174
430.0, 0.732116
432.0, 0.72996
434.0, 0.725163
436.0, 0.721064
438.0, 0.721687
440.0, 0.721054
442.0, 0.720928
444.0, 0.719319
446.0, 0.71728
448.0, 0.721004
450.0, 0.717652
452.0, 0.716577
454.0, 0.716526
456.0, 0.715269
458.0, 0.716405
460.0, 0.717
462.0, 0.716551
464.0, 0.71183
466.0, 0.715384
468.0, 0.711239
470.0, 0.709413
472.0, 0.710049
474.0, 0.712263
476.0, 0.712111
478.0, 0.710275
480.0, 0.707152
482.0, 0.711214
484.0, 0.709754
486.0, 0.711866
488.0, 0.712198
490.0, 0.710365
492.0, 0.709325
494.0, 0.711949
496.0, 0.713637
498.0, 0.714463
500.0, 0.71313
502.0, 0.713546
504.0, 0.711688
506.0, 0.712217
508.0, 0.712339
510.0, 0.71414
512.0, 0.712632
514.0, 0.709248
516.0, 0.710326
518.0, 0.708329
520.0, 0.709155
522.0, 0.707935
524.0, 0.706573
526.0, 0.710422
528.0, 0.709357
530.0, 0.707752
532.0, 0.705008
534.0, 0.702145
536.0, 0.704721
538.0, 0.700431
540.0, 0.701693
542.0, 0.701071
544.0, 0.702448
546.0, 0.699499
548.0, 0.702638
550.0, 0.701007
552.0, 0.700488
554.0, 0.699524
556.0, 0.697452
558.0, 0.699361
560.0, 0.698324
562.0, 0.697567
564.0, 0.699361
566.0, 0.698812
568.0, 0.695615
570.0, 0.695106
572.0, 0.696654
574.0, 0.695189
576.0, 0.693061
578.0, 0.695673
580.0, 0.696901
582.0, 0.696166
584.0, 0.692458
586.0, 0.691138
588.0, 0.685761
590.0, 0.686529
592.0, 0.688156
594.0, 0.681549
596.0, 0.680221
598.0, 0.675679
600.0, 0.67253
602.0, 0.668039
604.0, 0.661641
606.0, 0.661906
608.0, 0.658784
610.0, 0.656052
612.0, 0.650171
614.0, 0.647736
616.0, 0.646722
618.0, 0.637823
620.0, 0.631379
622.0, 0.626502
624.0, 0.621498
626.0, 0.61557
628.0, 0.609708
630.0, 0.60614
632.0, 0.599855
634.0, 0.596612
636.0, 0.590201
638.0, 0.586236
640.0, 0.577192
642.0, 0.573253
644.0, 0.564935
646.0, 0.558738
648.0, 0.552458
650.0, 0.54906
652.0, 0.540675
654.0, 0.538082
656.0, 0.528844
658.0, 0.522149
660.0, 0.516576
662.0, 0.511309
664.0, 0.501981
666.0, 0.496344
668.0, 0.487945
670.0, 0.480937
672.0, 0.476183
674.0, 0.470844
676.0, 0.463569
678.0, 0.457812
680.0, 0.451706
682.0, 0.448872
684.0, 0.438339
686.0, 0.433558
688.0, 0.428907
690.0, 0.422693
692.0, 0.417422
694.0, 0.412317
696.0, 0.408291
698.0, 0.402697
700.0, 0.395418
702.0, 0.390828
704.0, 0.38465
706.0, 0.381782
708.0, 0.376562
710.0, 0.372875
712.0, 0.367428
714.0, 0.364323
716.0, 0.358459
718.0, 0.354498
720.0, 0.349769
722.0, 0.348098
724.0, 0.345331
726.0, 0.339788
728.0, 0.33915
730.0, 0.334709
732.0, 0.329511
734.0, 0.327096
736.0, 0.324924
738.0, 0.32178
740.0, 0.31549
742.0, 0.315045
744.0, 0.309988
746.0, 0.307846
748.0, 0.305412
750.0, 0.304777
752.0, 0.301746
754.0, 0.296866
756.0, 0.297155
758.0, 0.295293
760.0, 0.29136
762.0, 0.288378
764.0, 0.284142
766.0, 0.284456
768.0, 0.281268
770.0, 0.280228
772.0, 0.277035
774.0, 0.273579
776.0, 0.272193
778.0, 0.269549
780.0, 0.265692
782.0, 0.264015
784.0, 0.26275
786.0, 0.26143
788.0, 0.258078
790.0, 0.253256
792.0, 0.252203
794.0, 0.251399
796.0, 0.248449
798.0, 0.247396
800.0, 0.244718
802.0, 0.241415
804.0, 0.240751
806.0, 0.238756
808.0, 0.23897
810.0, 0.23699
812.0, 0.232736
814.0, 0.23374
816.0, 0.233386
818.0, 0.23122
820.0, 0.22997
822.0, 0.229701
824.0, 0.228019
826.0, 0.227144
828.0, 0.226232
830.0, 0.225217
832.0, 0.226643
834.0, 0.22593
836.0, 0.2265
838.0, 0.228602
840.0, 0.227178
842.0, 0.229356
844.0, 0.228897
846.0, 0.229968
848.0, 0.232324
850.0, 0.234456
852.0, 0.234756
854.0, 0.236952
856.0, 0.238391
858.0, 0.241792
860.0, 0.243014
862.0, 0.24672
864.0, 0.247603
866.0, 0.248507
868.0, 0.249679
870.0, 0.25303
872.0, 0.255583
874.0, 0.258038
876.0, 0.260029
878.0, 0.259915
880.0, 0.263995
882.0, 0.265983
884.0, 0.268536
886.0, 0.271026
888.0, 0.270279
890.0, 0.276289
892.0, 0.276831
894.0, 0.279877
896.0, 0.280957
898.0, 0.282657
900.0, 0.284245
902.0, 0.286536
904.0, 0.288924
906.0, 0.29239
908.0, 0.293994
910.0, 0.29527
912.0, 0.294803
914.0, 0.295623
916.0, 0.30058
918.0, 0.301901
920.0, 0.304066
922.0, 0.305293
924.0, 0.306875
926.0, 0.307141
928.0, 0.309575
930.0, 0.311797
932.0, 0.311816
934.0, 0.31166
936.0, 0.313254
938.0, 0.314323
940.0, 0.316075
942.0, 0.317789
944.0, 0.318055
946.0, 0.317822
948.0, 0.322142
950.0, 0.319829
952.0, 0.32083
954.0, 0.324573
956.0, 0.324107
958.0, 0.322954
960.0, 0.323944
962.0, 0.32392
964.0, 0.323386
966.0, 0.328707
968.0, 0.327206
970.0, 0.327883
972.0, 0.327587
974.0, 0.32622
976.0, 0.327519
978.0, 0.328626
980.0, 0.331591
982.0, 0.328338
984.0, 0.327233
986.0, 0.329098
988.0, 0.32811
990.0, 0.329695
992.0, 0.327865
994.0, 0.33021
996.0, 0.327377
998.0, 0.326121
1000.0, 0.326201
1002.0, 0.32743
1004.0, 0.324447
1006.0, 0.325317
1008.0, 0.325674
1010.0, 0.323612
1012.0, 0.322667
1014.0, 0.321134
1016.0, 0.31892
1018.0, 0.320939
1020.0, 0.319732
1022.0, 0.317884
1024.0, 0.315952
1026.0, 0.313335
1028.0, 0.310782
1030.0, 0.310379
1032.0, 0.307531
1034.0, 0.304785
1036.0, 0.305623
1038.0, 0.302776
1040.0, 0.298176
1042.0, 0.295614
1044.0, 0.292501
1046.0, 0.291067
1048.0, 0.287561
1050.0, 0.284687
1052.0, 0.282754
1054.0, 0.2797
1056.0, 0.278294
1058.0, 0.274306
1060.0, 0.269663
1062.0, 0.268332
1064.0, 0.26375
1066.0, 0.261165
1068.0, 0.257339
1070.0, 0.253211
1072.0, 0.249364
1074.0, 0.247799
1076.0, 0.242502
1078.0, 0.240853
1080.0, 0.238788
1082.0, 0.236092
1084.0, 0.233639
1086.0, 0.228326
1088.0, 0.22569
1090.0, 0.222567
1092.0, 0.221792
1094.0, 0.217753
1096.0, 0.21491
1098.0, 0.213913
1100.0, 0.209948
1102.0, 0.208625
1104.0, 0.205642
1106.0, 0.203663
1108.0, 0.200827
1110.0, 0.20091
1112.0, 0.196822
1114.0, 0.194869
1116.0, 0.194615
1118.0, 0.190504
1120.0, 0.190897
1122.0, 0.18894
1124.0, 0.184737
1126.0, 0.184146
1128.0, 0.182282
1130.0, 0.180984
1132.0, 0.179688
1134.0, 0.177292
1136.0, 0.177387
1138.0, 0.176441
1140.0, 0.174639
1142.0, 0.172985
1144.0, 0.173358
1146.0, 0.172102
1148.0, 0.170105
1150.0, 0.169865
1152.0, 0.169943
1154.0, 0.168226
1156.0, 0.164436
1158.0, 0.164247
1160.0, 0.162597
1162.0, 0.164768
1164.0, 0.165035
1166.0, 0.163001
1168.0, 0.162225
1170.0, 0.159256
1172.0, 0.160489
1174.0, 0.160044
1176.0, 0.159923
1178.0, 0.157421
1180.0, 0.155858
1182.0, 0.156588
1184.0, 0.156179
1186.0, 0.155958
1188.0, 0.153295
1190.0, 0.154258
1192.0, 0.153493
1194.0, 0.153848
1196.0, 0.151956
1198.0, 0.152264
1200.0, 0.151652
1202.0, 0.150961
1204.0, 0.148439
1206.0, 0.150099
1208.0, 0.150485
1210.0, 0.149843
1212.0, 0.149939
1214.0, 0.149017
1216.0, 0.147612
1218.0, 0.148877
1220.0, 0.146812
1222.0, 0.148909
1224.0, 0.147672
1226.0, 0.14732
1228.0, 0.145015
1230.0, 0.146662
1232.0, 0.144957
1234.0, 0.145575
1236.0, 0.145423
1238.0, 0.145103
1240.0, 0.143523
1242.0, 0.144866
1244.0, 0.14441
1246.0, 0.145332
1248.0, 0.142696
1250.0, 0.143236
1252.0, 0.144899
1254.0, 0.143846
1256.0, 0.143985
1258.0, 0.143737
1260.0, 0.142462
1262.0, 0.143043
1264.0, 0.143627
1266.0, 0.142679
1268.0, 0.144051
1270.0, 0.14151
1272.0, 0.141818
1274.0, 0.142442
1276.0, 0.143341
1278.0, 0.143066
1280.0, 0.142269
1282.0, 0.142331
1284.0, 0.142581
1286.0, 0.143078
1288.0, 0.143155
1290.0, 0.143293
1292.0, 0.144224
1294.0, 0.142623
1296.0, 0.141179
1298.0, 0.141971
1300.0, 0.140566
1302.0, 0.14108
1304, 0.0
1306, 0.0
1308, 0.0
1310, 0.0
1312, 0.0
1314, 0.0
1316, 0.0
1318, 0.0
1320, 0.0
1322, 0.0
1324, 0.0
1326, 0.0
1328, 0.0
1330, 0.0
1332, 0.0
1334, 0.0
1336, 0.0
1338, 0.0
1340, 0.0
1342, 0.0
1344, 0.0
1346, 0.0
1348, 0.0
1350, 0.0
1352, 0.0
1354, 0.0
1356, 0.0
1358, 0.0
1360, 0.0
1362, 0.0
1364, 0.0
1366, 0.0
1368, 0.0
1370, 0.0
1372, 0.0
1374, 0.0
1376, 0.0
1378, 0.0
1380, 0.0
1382, 0.0
1384, 0.0
1386, 0.0
1388, 0.0
1390, 0.0
1392, 0.0
1394, 0.0
1396, 0.0
1398, 0.0
1400, 0.0
1402, 0.0
1404, 0.0
1406, 0.0
1408, 0.0
1410, 0.0
1412, 0.0
1414, 0.0
1416, 0.0
1418, 0.0
1420, 0.0
1422, 0.0
1424, 0.0
1426, 0.0
1428, 0.0
1430, 0.0
1432, 0.0
1434, 0.0
1436, 0.0
1438, 0.0
1440, 0.0
1442, 0.0
1444, 0.0
1446, 0.0
1448, 0.0
1450, 0.0
1452, 0.0
1454, 0.0
1456, 0.0
1458, 0.0
1460, 0.0
1462, 0.0
1464, 0.0
1466, 0.0
1468, 0.0
1470, 0.0
1472, 0.0
1474, 0.0
1476, 0.0
1478, 0.0
1480, 0.0
1482, 0.0
1484, 0.0
1486, 0.0
1488, 0.0
1490, 0.0
1492, 0.0
1494, 0.0
1496, 0.0
1498, 0.0
1500, 0.0
1502, 0.0
1504, 0.0
1506, 0.0
1508, 0.0
1510, 0.0
1512, 0.0
1514, 0.0
1516, 0.0
1518, 0.0
1520, 0.0
1522, 0.0
1524, 0.0
1526, 0.0
1528, 0.0
1530, 0.0
1532, 0.0
1534, 0.0
1536, 0.0
1538, 0.0
1540, 0.0
1542, 0.0
1544, 0.0
1546, 0.0
1548, 0.0
1550, 0.0
1552, 0.0
1554, 0.0
1556, 0.0
1558, 0.0
1560, 0.0
1562, 0.0
1564, 0.0
1566, 0.0
1568, 0.0
1570, 0.0
1572, 0.0
1574, 0.0
1576, 0.0
1578, 0.0
1580, 0.0
1582, 0.0
1584, 0.0
1586, 0.0
1588, 0.0
1590, 0.0
1592, 0.0
1594, 0.0
1596, 0.0
1598, 0.0
1599, 0.0