File: raw data/Dataset_2/GlassTb/GlassTb__R110081__Raman__780__0__unoriented__Raman_Data_Processed__35501.txt
30, 0.0
32, 0.0
34, 0.0
36, 0.0
38, 0.0
40, 0.0
42, 0.0
44, 0.0
46, 0.0
48, 0.0
50, 0.0
52, 0.0
54, 0.0
56, 0.0
58, 0.0
60, 0.0
62, 0.0
64, 0.0
66, 0.0
68, 0.0
70, 0.0
72, 0.0
74, 0.0
76, 0.0
78, 0.0
80, 0.0
82, 0.0
84, 0.0
86, 0.0
88, 0.0
90, 0.0
92, 0.0
94, 0.0
96.0, 0.985214
98.0, 0.961203
100.0, 0.925246
102.0, 0.899405
104.0, 0.888071
106.0, 0.883985
108.0, 0.882507
110.0, 0.859227
112.0, 0.856438
114.0, 0.850732
116.0, 0.840262
118.0, 0.837716
120.0, 0.827506
122.0, 0.830165
124.0, 0.823779
126.0, 0.815974
128.0, 0.815579
130.0, 0.811558
132.0, 0.79825
134.0, 0.79515
136.0, 0.789736
138.0, 0.785083
140.0, 0.785164
142.0, 0.774457
144.0, 0.77387
146.0, 0.76773
148.0, 0.764266
150.0, 0.757274
152.0, 0.759579
154.0, 0.753383
156.0, 0.74901
158.0, 0.740657
160.0, 0.740272
162.0, 0.732876
164.0, 0.733627
166.0, 0.730513
168.0, 0.727668
170.0, 0.726914
172.0, 0.720788
174.0, 0.715321
176.0, 0.717826
178.0, 0.714096
180.0, 0.713851
182.0, 0.708699
184.0, 0.70408
186.0, 0.699394
188.0, 0.689627
190.0, 0.68965
192.0, 0.690033
194.0, 0.689576
196.0, 0.688511
198.0, 0.68209
200.0, 0.679055
202.0, 0.679355
204.0, 0.675056
206.0, 0.676472
208.0, 0.678881
210.0, 0.669743
212.0, 0.667185
214.0, 0.66882
216.0, 0.667918
218.0, 0.664058
220.0, 0.665305
222.0, 0.659444
224.0, 0.661008
226.0, 0.655706
228.0, 0.652119
230.0, 0.655005
232.0, 0.648736
234.0, 0.650483
236.0, 0.649933
238.0, 0.64887
240.0, 0.643934
242.0, 0.642048
244.0, 0.644457
246.0, 0.642022
248.0, 0.640847
250.0, 0.640019
252.0, 0.637404
254.0, 0.633341
256.0, 0.633784
258.0, 0.632809
260.0, 0.629863
262.0, 0.632456
264.0, 0.63068
266.0, 0.629582
268.0, 0.628132
270.0, 0.622155
272.0, 0.627396
274.0, 0.626897
276.0, 0.621536
278.0, 0.621546
280.0, 0.62277
282.0, 0.618801
284.0, 0.620535
286.0, 0.616504
288.0, 0.612339
290.0, 0.61546
292.0, 0.612835
294.0, 0.613283
296.0, 0.614484
298.0, 0.613138
300.0, 0.619421
302.0, 0.606528
304.0, 0.613267
306.0, 0.612318
308.0, 0.611837
310.0, 0.614027
312.0, 0.613627
314.0, 0.608914
316.0, 0.614455
318.0, 0.608076
320.0, 0.608502
322.0, 0.611336
324.0, 0.607534
326.0, 0.612621
328.0, 0.607512
330.0, 0.608623
332.0, 0.610961
334.0, 0.611943
336.0, 0.612899
338.0, 0.611318
340.0, 0.60789
342.0, 0.614145
344.0, 0.611335
346.0, 0.610082
348.0, 0.611689
350.0, 0.614169
352.0, 0.610487
354.0, 0.610519
356.0, 0.608782
358.0, 0.609962
360.0, 0.610649
362.0, 0.607656
364.0, 0.607656
366.0, 0.607849
368.0, 0.603453
370.0, 0.603552
372.0, 0.603903
374.0, 0.601778
376.0, 0.597644
378.0, 0.594675
380.0, 0.591139
382.0, 0.590349
384.0, 0.595335
386.0, 0.589914
388.0, 0.586516
390.0, 0.586334
392.0, 0.587702
394.0, 0.584987
396.0, 0.585636
398.0, 0.585714
400.0, 0.581654
402.0, 0.579373
404.0, 0.576718
406.0, 0.582091
408.0, 0.581515
410.0, 0.574275
412.0, 0.580655
414.0, 0.578273
416.0, 0.574053
418.0, 0.570336
420.0, 0.572568
422.0, 0.573866
424.0, 0.571684
426.0, 0.568917
428.0, 0.56887
430.0, 0.573925
432.0, 0.568797
434.0, 0.568238
436.0, 0.569915
438.0, 0.5664
440.0, 0.571541
442.0, 0.571441
444.0, 0.566685
446.0, 0.564968
448.0, 0.569027
450.0, 0.565946
452.0, 0.568506
454.0, 0.567301
456.0, 0.566977
458.0, 0.567724
460.0, 0.566584
462.0, 0.568419
464.0, 0.56391
466.0, 0.565414
468.0, 0.563803
470.0, 0.563584
472.0, 0.557576
474.0, 0.559424
476.0, 0.559523
478.0, 0.559673
480.0, 0.556343
482.0, 0.558119
484.0, 0.552877
486.0, 0.554173
488.0, 0.552791
490.0, 0.55172
492.0, 0.550026
494.0, 0.55102
496.0, 0.551108
498.0, 0.547466
500.0, 0.549566
502.0, 0.546442
504.0, 0.543262
506.0, 0.541392
508.0, 0.539474
510.0, 0.540661
512.0, 0.535221
514.0, 0.531592
516.0, 0.529867
518.0, 0.527295
520.0, 0.521178
522.0, 0.517944
524.0, 0.514596
526.0, 0.512599
528.0, 0.508794
530.0, 0.500042
532.0, 0.499797
534.0, 0.491663
536.0, 0.49178
538.0, 0.486821
540.0, 0.483725
542.0, 0.476078
544.0, 0.476021
546.0, 0.468691
548.0, 0.465833
550.0, 0.462519
552.0, 0.459046
554.0, 0.457585
556.0, 0.451126
558.0, 0.449589
560.0, 0.451056
562.0, 0.446074
564.0, 0.442525
566.0, 0.4407
568.0, 0.442154
570.0, 0.433124
572.0, 0.431689
574.0, 0.425994
576.0, 0.421156
578.0, 0.421416
580.0, 0.413986
582.0, 0.411167
584.0, 0.407001
586.0, 0.391015
588.0, 0.391681
590.0, 0.387047
592.0, 0.383042
594.0, 0.376187
596.0, 0.37012
598.0, 0.367061
600.0, 0.359403
602.0, 0.35104
604.0, 0.350774
606.0, 0.34231
608.0, 0.340137
610.0, 0.336435
612.0, 0.33105
614.0, 0.32887
616.0, 0.319909
618.0, 0.32091
620.0, 0.318241
622.0, 0.313919
624.0, 0.3111
626.0, 0.311462
628.0, 0.305417
630.0, 0.307158
632.0, 0.305257
634.0, 0.301369
636.0, 0.3037
638.0, 0.298169
640.0, 0.298334
642.0, 0.294532
644.0, 0.293865
646.0, 0.29108
648.0, 0.287858
650.0, 0.293189
652.0, 0.286947
654.0, 0.279906
656.0, 0.279162
658.0, 0.276343
660.0, 0.273683
662.0, 0.267165
664.0, 0.264853
666.0, 0.261977
668.0, 0.262164
670.0, 0.257632
672.0, 0.252177
674.0, 0.249027
676.0, 0.242113
678.0, 0.240313
680.0, 0.240538
682.0, 0.225489
684.0, 0.228124
686.0, 0.223508
688.0, 0.222331
690.0, 0.214825
692.0, 0.209546
694.0, 0.206188
696.0, 0.201735
698.0, 0.196732
700.0, 0.192453
702.0, 0.19043
704.0, 0.185799
706.0, 0.183722
708.0, 0.18026
710.0, 0.173622
712.0, 0.173779
714.0, 0.168273
716.0, 0.163682
718.0, 0.162744
720.0, 0.158904
722.0, 0.151815
724.0, 0.150427
726.0, 0.151273
728.0, 0.144885
730.0, 0.140514
732.0, 0.141533
734.0, 0.139228
736.0, 0.131965
738.0, 0.135653
740.0, 0.128362
742.0, 0.126048
744.0, 0.122805
746.0, 0.125856
748.0, 0.118782
750.0, 0.113474
752.0, 0.115091
754.0, 0.114156
756.0, 0.109549
758.0, 0.110406
760.0, 0.103071
762.0, 0.102539
764.0, 0.102626
766.0, 0.0981168
768.0, 0.0978545
770.0, 0.093331
772.0, 0.0904261
774.0, 0.0916315
776.0, 0.0854483
778.0, 0.0857386
780.0, 0.0833199
782.0, 0.0842071
784.0, 0.0790639
786.0, 0.07628
788.0, 0.0708913
790.0, 0.0678995
792.0, 0.0694815
794.0, 0.065631
796.0, 0.0657602
798.0, 0.0622902
800.0, 0.0614108
802.0, 0.0543908
804.0, 0.0552987
806.0, 0.0552647
808.0, 0.0518166
810.0, 0.0498913
812.0, 0.0525089
814.0, 0.0455449
816.0, 0.0469509
818.0, 0.0484645
820.0, 0.0452138
822.0, 0.044807
824.0, 0.0471439
826.0, 0.048349
828.0, 0.0489897
830.0, 0.0505335
832.0, 0.0543393
834.0, 0.0522941
836.0, 0.0588265
838.0, 0.0617007
840.0, 0.0679847
842.0, 0.0690109
844.0, 0.0739838
846.0, 0.0790673
848.0, 0.0828397
850.0, 0.0903175
852.0, 0.0951469
854.0, 0.0984897
856.0, 0.106359
858.0, 0.115425
860.0, 0.116027
862.0, 0.12461
864.0, 0.129303
866.0, 0.134454
868.0, 0.142068
870.0, 0.148599
872.0, 0.151938
874.0, 0.163296
876.0, 0.164639
878.0, 0.171092
880.0, 0.177567
882.0, 0.181932
884.0, 0.187583
886.0, 0.189985
888.0, 0.199104
890.0, 0.201185
892.0, 0.212013
894.0, 0.212157
896.0, 0.217053
898.0, 0.222863
900.0, 0.228858
902.0, 0.232556
904.0, 0.237305
906.0, 0.240974
908.0, 0.246073
910.0, 0.252425
912.0, 0.254984
914.0, 0.260234
916.0, 0.269908
918.0, 0.272211
920.0, 0.276018
922.0, 0.283122
924.0, 0.282269
926.0, 0.283465
928.0, 0.289353
930.0, 0.29296
932.0, 0.296961
934.0, 0.303962
936.0, 0.304826
938.0, 0.305888
940.0, 0.311954
942.0, 0.30999
944.0, 0.310909
946.0, 0.317501
948.0, 0.319478
950.0, 0.319506
952.0, 0.324883
954.0, 0.325501
956.0, 0.327711
958.0, 0.331187
960.0, 0.332806
962.0, 0.332762
964.0, 0.334871
966.0, 0.332078
968.0, 0.338189
970.0, 0.334962
972.0, 0.34135
974.0, 0.337426
976.0, 0.342132
978.0, 0.342463
980.0, 0.342885
982.0, 0.344005
984.0, 0.344922
986.0, 0.343783
988.0, 0.345018
990.0, 0.345891
992.0, 0.348505
994.0, 0.340122
996.0, 0.350274
998.0, 0.348825
1000.0, 0.342284
1002.0, 0.341864
1004.0, 0.343484
1006.0, 0.339787
1008.0, 0.338631
1010.0, 0.342483
1012.0, 0.342473
1014.0, 0.333815
1016.0, 0.332608
1018.0, 0.33026
1020.0, 0.326945
1022.0, 0.327851
1024.0, 0.318505
1026.0, 0.321639
1028.0, 0.316672
1030.0, 0.311863
1032.0, 0.30853
1034.0, 0.298246
1036.0, 0.302302
1038.0, 0.292301
1040.0, 0.284675
1042.0, 0.283224
1044.0, 0.280682
1046.0, 0.271052
1048.0, 0.266555
1050.0, 0.257693
1052.0, 0.25423
1054.0, 0.246927
1056.0, 0.240014
1058.0, 0.235762
1060.0, 0.226887
1062.0, 0.220762
1064.0, 0.216085
1066.0, 0.208628
1068.0, 0.201199
1070.0, 0.193433
1072.0, 0.192558
1074.0, 0.183195
1076.0, 0.173509
1078.0, 0.167308
1080.0, 0.161421
1082.0, 0.15262
1084.0, 0.148159
1086.0, 0.143063
1088.0, 0.137251
1090.0, 0.13223
1092.0, 0.122079
1094.0, 0.120503
1096.0, 0.11186
1098.0, 0.108964
1100.0, 0.102599
1102.0, 0.0968084
1104.0, 0.096046
1106.0, 0.0860739
1108.0, 0.0884504
1110.0, 0.080375
1112.0, 0.0720372
1114.0, 0.0731437
1116.0, 0.0692203
1118.0, 0.0659779
1120.0, 0.0635335
1122.0, 0.0569133
1124.0, 0.0598112
1126.0, 0.0527778
1128.0, 0.0534534
1130.0, 0.0510504
1132.0, 0.0500738
1134.0, 0.0456615
1136.0, 0.042241
1138.0, 0.0405473
1140.0, 0.0395885
1142.0, 0.0375347
1144.0, 0.0357655
1146.0, 0.0298503
1148.0, 0.0275739
1150.0, 0.0301409
1152.0, 0.027947
1154.0, 0.028677
1156.0, 0.0241247
1158.0, 0.0230731
1160.0, 0.0245034
1162.0, 0.0247051
1164.0, 0.0215632
1166.0, 0.0183451
1168.0, 0.0165991
1170.0, 0.0182012
1172.0, 0.0193482
1174.0, 0.0146078
1176.0, 0.0154076
1178.0, 0.014136
1180.0, 0.0180478
1182.0, 0.0105189
1184.0, 0.0130158
1186.0, 0.0129217
1188.0, 0.00944814
1190.0, 0.00755154
1192.0, 0.0109848
1194.0, 0.0105334
1196.0, 0.00956712
1198.0, 0.00877971
1200.0, 0.00741825
1202.0, 0.0066823
1204.0, 0.00872401
1206.0, 0.006501
1208.0, 0.00802369
1210.0, 0.00692863
1212.0, 0.00959973
1214.0, 0.00552751
1216.0, 0.00274014
1218.0, 0.00440799
1220.0, 0.00537629
1222.0, 0.0035289
1224.0, 0.00582675
1226.0, 0.00603823
1228.0, 0.00301031
1230.0, 0.00639421
1232.0, 0.00200682
1234.0, 0.00312011
1236.0, 0.00431943
1238.0, 0.00566573
1240.0, 0.00236832
1242.0, 0.00309075
1244.0, 0.00267782
1246.0, 0.00565001
1248.0, 0.00188928
1250.0, 0.00531182
1252.0, 0.00667263
1254.0, 0.00328491
1256.0, 0.00338335
1258.0, 0.00507278
1260.0, 0.00593569
1262.0, 0.00657719
1264.0, 0.0038017
1266.0, 0.00635078
1268.0, 0.0058822
1270.0, 0.00895065
1272.0, 0.00923246
1274.0, 0.0148736
1276.0, 0.00983165
1278.0, 0.00851312
1280.0, 0.00758825
1282.0, 0.0103634
1284.0, 0.015321
1286, 0.0
1288, 0.0
1290, 0.0
1292, 0.0
1294, 0.0
1296, 0.0
1298, 0.0
1300, 0.0
1302, 0.0
1304, 0.0
1306, 0.0
1308, 0.0
1310, 0.0
1312, 0.0
1314, 0.0
1316, 0.0
1318, 0.0
1320, 0.0
1322, 0.0
1324, 0.0
1326, 0.0
1328, 0.0
1330, 0.0
1332, 0.0
1334, 0.0
1336, 0.0
1338, 0.0
1340, 0.0
1342, 0.0
1344, 0.0
1346, 0.0
1348, 0.0
1350, 0.0
1352, 0.0
1354, 0.0
1356, 0.0
1358, 0.0
1360, 0.0
1362, 0.0
1364, 0.0
1366, 0.0
1368, 0.0
1370, 0.0
1372, 0.0
1374, 0.0
1376, 0.0
1378, 0.0
1380, 0.0
1382, 0.0
1384, 0.0
1386, 0.0
1388, 0.0
1390, 0.0
1392, 0.0
1394, 0.0
1396, 0.0
1398, 0.0
1400, 0.0
1402, 0.0
1404, 0.0
1406, 0.0
1408, 0.0
1410, 0.0
1412, 0.0
1414, 0.0
1416, 0.0
1418, 0.0
1420, 0.0
1422, 0.0
1424, 0.0
1426, 0.0
1428, 0.0
1430, 0.0
1432, 0.0
1434, 0.0
1436, 0.0
1438, 0.0
1440, 0.0
1442, 0.0
1444, 0.0
1446, 0.0
1448, 0.0
1450, 0.0
1452, 0.0
1454, 0.0
1456, 0.0
1458, 0.0
1460, 0.0
1462, 0.0
1464, 0.0
1466, 0.0
1468, 0.0
1470, 0.0
1472, 0.0
1474, 0.0
1476, 0.0
1478, 0.0
1480, 0.0
1482, 0.0
1484, 0.0
1486, 0.0
1488, 0.0
1490, 0.0
1492, 0.0
1494, 0.0
1496, 0.0
1498, 0.0
1500, 0.0
1502, 0.0
1504, 0.0
1506, 0.0
1508, 0.0
1510, 0.0
1512, 0.0
1514, 0.0
1516, 0.0
1518, 0.0
1520, 0.0
1522, 0.0
1524, 0.0
1526, 0.0
1528, 0.0
1530, 0.0
1532, 0.0
1534, 0.0
1536, 0.0
1538, 0.0
1540, 0.0
1542, 0.0
1544, 0.0
1546, 0.0
1548, 0.0
1550, 0.0
1552, 0.0
1554, 0.0
1556, 0.0
1558, 0.0
1560, 0.0
1562, 0.0
1564, 0.0
1566, 0.0
1568, 0.0
1570, 0.0
1572, 0.0
1574, 0.0
1576, 0.0
1578, 0.0
1580, 0.0
1582, 0.0
1584, 0.0
1586, 0.0
1588, 0.0
1590, 0.0
1592, 0.0
1594, 0.0
1596, 0.0
1598, 0.0
1599, 0.0