File: raw data/Dataset_2/GlassEr/GlassEr__R110084__Raman__532__0__unoriented__Raman_Data_Processed__35507.txt
30, 0.0
32, 0.0
34, 0.0
36, 0.0
38, 0.0
40, 0.0
42, 0.0
44, 0.0
46, 0.0
48, 0.0
50, 0.0
52, 0.0
54, 0.0
56, 0.0
58, 0.0
60, 0.0
62, 0.0
64, 0.0
66, 0.0
68, 0.0
70, 0.0
72, 0.0
74, 0.0
76, 0.0
78, 0.0
80, 0.0
82, 0.0
84, 0.0
86, 0.0
88, 0.0
90, 0.0
92, 0.0
94, 0.0
96, 0.0
98, 0.0
100, 0.0
102, 0.0
104, 0.0
106, 0.0
108, 0.0
110, 0.0
112, 0.0
114, 0.0
116, 0.0
118, 0.0
120, 0.0
122, 0.0
124, 0.0
126, 0.0
128, 0.0
130, 0.0
132, 0.0
134, 0.0
136, 0.0
138, 0.0
140, 0.0
142, 0.0
144, 0.0
146, 0.0
148, 0.0
150, 0.0
152, 0.0
154, 0.0
156, 0.0
158, 0.0
160, 0.0
162, 0.0
164, 0.0
166, 0.0
168, 0.0
170, 0.0
172, 0.0
174, 0.0
176, 0.0
178, 0.0
180.0, 0.159506
182.0, 0.162678
184.0, 0.164339
186.0, 0.166378
188.0, 0.16788
190.0, 0.168145
192.0, 0.169006
194.0, 0.170316
196.0, 0.171551
198.0, 0.173799
200.0, 0.174642
202.0, 0.174567
204.0, 0.175372
206.0, 0.17586
208.0, 0.176449
210.0, 0.176952
212.0, 0.17822
214.0, 0.179248
216.0, 0.180633
218.0, 0.182247
220.0, 0.183772
222.0, 0.185808
224.0, 0.187467
226.0, 0.188441
228.0, 0.190981
230.0, 0.193065
232.0, 0.195458
234.0, 0.199123
236.0, 0.20192
238.0, 0.204376
240.0, 0.207042
242.0, 0.210475
244.0, 0.21323
246.0, 0.217362
248.0, 0.221329
250.0, 0.225847
252.0, 0.230494
254.0, 0.234886
256.0, 0.240341
258.0, 0.245647
260.0, 0.250418
262.0, 0.255685
264.0, 0.261428
266.0, 0.267442
268.0, 0.274499
270.0, 0.2803
272.0, 0.287984
274.0, 0.295176
276.0, 0.303122
278.0, 0.310074
280.0, 0.317021
282.0, 0.32448
284.0, 0.330356
286.0, 0.337732
288.0, 0.345266
290.0, 0.354111
292.0, 0.363235
294.0, 0.3721
296.0, 0.380727
298.0, 0.39054
300.0, 0.400047
302.0, 0.409081
304.0, 0.418315
306.0, 0.427372
308.0, 0.435359
310.0, 0.445232
312.0, 0.454902
314.0, 0.463607
316.0, 0.473079
318.0, 0.483449
320.0, 0.490271
322.0, 0.49931
324.0, 0.508039
326.0, 0.516704
328.0, 0.52486
330.0, 0.534016
332.0, 0.541995
334.0, 0.552458
336.0, 0.562348
338.0, 0.57107
340.0, 0.58009
342.0, 0.585367
344.0, 0.593307
346.0, 0.599003
348.0, 0.606081
350.0, 0.614127
352.0, 0.62265
354.0, 0.630655
356.0, 0.638051
358.0, 0.644292
360.0, 0.651036
362.0, 0.656181
364.0, 0.662371
366.0, 0.668775
368.0, 0.674124
370.0, 0.679431
372.0, 0.684332
374.0, 0.689733
376.0, 0.694421
378.0, 0.699617
380.0, 0.703977
382.0, 0.708432
384.0, 0.71352
386.0, 0.719551
388.0, 0.723627
390.0, 0.728396
392.0, 0.7314
394.0, 0.735036
396.0, 0.740182
398.0, 0.745671
400.0, 0.750739
402.0, 0.754928
404.0, 0.760453
406.0, 0.766632
408.0, 0.770444
410.0, 0.775205
412.0, 0.781853
414.0, 0.786639
416.0, 0.791054
418.0, 0.796165
420.0, 0.797732
422.0, 0.802723
424.0, 0.808308
426.0, 0.813115
428.0, 0.820128
430.0, 0.825852
432.0, 0.828947
434.0, 0.834195
436.0, 0.837436
438.0, 0.842718
440.0, 0.846589
442.0, 0.853182
444.0, 0.856831
446.0, 0.862048
448.0, 0.867151
450.0, 0.871866
452.0, 0.874472
454.0, 0.878123
456.0, 0.881767
458.0, 0.887243
460.0, 0.893937
462.0, 0.896962
464.0, 0.900824
466.0, 0.904556
468.0, 0.906993
470.0, 0.912086
472.0, 0.917122
474.0, 0.921982
476.0, 0.927428
478.0, 0.930799
480.0, 0.935559
482.0, 0.94102
484.0, 0.946307
486.0, 0.95027
488.0, 0.95477
490.0, 0.958969
492.0, 0.962464
494.0, 0.967636
496.0, 0.973592
498.0, 0.975832
500.0, 0.978999
502.0, 0.980252
504.0, 0.980946
506.0, 0.983185
508.0, 0.985077
510.0, 0.989508
512.0, 0.991073
514.0, 0.990983
516.0, 0.991202
518.0, 0.992083
520.0, 0.991754
522.0, 0.993848
524.0, 0.995911
526.0, 0.997901
528.0, 0.999534
530.0, 0.996773
532.0, 0.996642
534.0, 0.995321
536.0, 0.993435
538.0, 0.991578
540.0, 0.992575
542.0, 0.991603
544.0, 0.989633
546.0, 0.987861
548.0, 0.988016
550.0, 0.985939
552.0, 0.984998
554.0, 0.982769
556.0, 0.977691
558.0, 0.974108
560.0, 0.970829
562.0, 0.96869
564.0, 0.962938
566.0, 0.959569
568.0, 0.954214
570.0, 0.949948
572.0, 0.945613
574.0, 0.939537
576.0, 0.936706
578.0, 0.932821
580.0, 0.927615
582.0, 0.922566
584.0, 0.916419
586.0, 0.909014
588.0, 0.903252
590.0, 0.897168
592.0, 0.891481
594.0, 0.885203
596.0, 0.877921
598.0, 0.870138
600.0, 0.863836
602.0, 0.85412
604.0, 0.847874
606.0, 0.840611
608.0, 0.834703
610.0, 0.829445
612.0, 0.822881
614.0, 0.815819
616.0, 0.809562
618.0, 0.803401
620.0, 0.797698
622.0, 0.790252
624.0, 0.785376
626.0, 0.778813
628.0, 0.771953
630.0, 0.767525
632.0, 0.762726
634.0, 0.760198
636.0, 0.756174
638.0, 0.751475
640.0, 0.74742
642.0, 0.742146
644.0, 0.738941
646.0, 0.736034
648.0, 0.732361
650.0, 0.728423
652.0, 0.726258
654.0, 0.724182
656.0, 0.721198
658.0, 0.718307
660.0, 0.715052
662.0, 0.712093
664.0, 0.7085
666.0, 0.705474
668.0, 0.70267
670.0, 0.699908
672.0, 0.696345
674.0, 0.694554
676.0, 0.691243
678.0, 0.68905
680.0, 0.68694
682.0, 0.686183
684.0, 0.682962
686.0, 0.680008
688.0, 0.677287
690.0, 0.674955
692.0, 0.672503
694.0, 0.668746
696.0, 0.666454
698.0, 0.664287
700.0, 0.660973
702.0, 0.657176
704.0, 0.654107
706.0, 0.65244
708.0, 0.65049
710.0, 0.649179
712.0, 0.647697
714.0, 0.643443
716.0, 0.642445
718.0, 0.6384
720.0, 0.636647
722.0, 0.635444
724.0, 0.636491
726.0, 0.635517
728.0, 0.635089
730.0, 0.634122
732.0, 0.633858
734.0, 0.632288
736.0, 0.630591
738.0, 0.629246
740.0, 0.628999
742.0, 0.627313
744.0, 0.626614
746.0, 0.626553
748.0, 0.626448
750.0, 0.627558
752.0, 0.629046
754.0, 0.630204
756.0, 0.631533
758.0, 0.631252
760.0, 0.630098
762.0, 0.629449
764.0, 0.630477
766.0, 0.630248
768.0, 0.63145
770.0, 0.631121
772.0, 0.632042
774.0, 0.632409
776.0, 0.631381
778.0, 0.632864
780.0, 0.633777
782.0, 0.634451
784.0, 0.634321
786.0, 0.633649
788.0, 0.631953
790.0, 0.632021
792.0, 0.633949
794.0, 0.634855
796.0, 0.63392
798.0, 0.632101
800.0, 0.632198
802.0, 0.6323
804.0, 0.630219
806.0, 0.631062
808.0, 0.632499
810.0, 0.631352
812.0, 0.630093
814.0, 0.630499
816.0, 0.629148
818.0, 0.628555
820.0, 0.628303
822.0, 0.627886
824.0, 0.625779
826.0, 0.622109
828.0, 0.62014
830.0, 0.620101
832.0, 0.619161
834.0, 0.616528
836.0, 0.614899
838.0, 0.612634
840.0, 0.611158
842.0, 0.60875
844.0, 0.605999
846.0, 0.604824
848.0, 0.601577
850.0, 0.598743
852.0, 0.597382
854.0, 0.593814
856.0, 0.59203
858.0, 0.590634
860.0, 0.58913
862.0, 0.58577
864.0, 0.582388
866.0, 0.577735
868.0, 0.57455
870.0, 0.572077
872.0, 0.569318
874.0, 0.566302
876.0, 0.563986
878.0, 0.560481
880.0, 0.55579
882.0, 0.552205
884.0, 0.549554
886.0, 0.546463
888.0, 0.543443
890.0, 0.540042
892.0, 0.536054
894.0, 0.531271
896.0, 0.52832
898.0, 0.523737
900.0, 0.519293
902.0, 0.515766
904.0, 0.512987
906.0, 0.509669
908.0, 0.506071
910.0, 0.502844
912.0, 0.497357
914.0, 0.493618
916.0, 0.490015
918.0, 0.485983
920.0, 0.481266
922.0, 0.476319
924.0, 0.47198
926.0, 0.46924
928.0, 0.463862
930.0, 0.461411
932.0, 0.454652
934.0, 0.449496
936.0, 0.444357
938.0, 0.440099
940.0, 0.435414
942.0, 0.431839
944.0, 0.427825
946.0, 0.425256
948.0, 0.420204
950.0, 0.415509
952.0, 0.41159
954.0, 0.407376
956.0, 0.403151
958.0, 0.398052
960.0, 0.393157
962.0, 0.389415
964.0, 0.385363
966.0, 0.381231
968.0, 0.376879
970.0, 0.37237
972.0, 0.367002
974.0, 0.362147
976.0, 0.357388
978.0, 0.353191
980.0, 0.349194
982.0, 0.343779
984.0, 0.339061
986.0, 0.334327
988.0, 0.33163
990.0, 0.326094
992.0, 0.322358
994.0, 0.31755
996.0, 0.312744
998.0, 0.30771
1000.0, 0.303071
1002.0, 0.298931
1004.0, 0.294245
1006.0, 0.290649
1008.0, 0.28724
1010.0, 0.282086
1012.0, 0.277778
1014.0, 0.273039
1016.0, 0.268484
1018.0, 0.264643
1020.0, 0.260948
1022.0, 0.257246
1024.0, 0.252904
1026.0, 0.248671
1028.0, 0.243948
1030.0, 0.24009
1032.0, 0.236142
1034.0, 0.232663
1036.0, 0.22911
1038.0, 0.224164
1040.0, 0.220199
1042.0, 0.216152
1044.0, 0.21194
1046.0, 0.208997
1048.0, 0.204799
1050.0, 0.201169
1052.0, 0.197993
1054.0, 0.194436
1056.0, 0.191134
1058.0, 0.187157
1060.0, 0.183572
1062.0, 0.179869
1064.0, 0.176541
1066.0, 0.172908
1068.0, 0.169227
1070.0, 0.166596
1072.0, 0.162831
1074.0, 0.159414
1076.0, 0.156067
1078.0, 0.153212
1080.0, 0.150429
1082.0, 0.146925
1084.0, 0.143861
1086.0, 0.14075
1088.0, 0.137637
1090.0, 0.135336
1092.0, 0.132169
1094.0, 0.129735
1096.0, 0.126806
1098.0, 0.124286
1100.0, 0.12146
1102.0, 0.118716
1104.0, 0.116228
1106.0, 0.113633
1108.0, 0.110895
1110.0, 0.108467
1112.0, 0.106492
1114.0, 0.103658
1116.0, 0.101276
1118.0, 0.098646
1120.0, 0.0966084
1122.0, 0.094421
1124.0, 0.0920298
1126.0, 0.089364
1128.0, 0.0880132
1130.0, 0.0855081
1132.0, 0.0831544
1134.0, 0.0808902
1136.0, 0.0789052
1138.0, 0.0775887
1140.0, 0.0755673
1142.0, 0.0735466
1144.0, 0.071538
1146.0, 0.0701318
1148.0, 0.0682067
1150.0, 0.0665465
1152.0, 0.0643861
1154.0, 0.0630778
1156.0, 0.0609328
1158.0, 0.0595233
1160.0, 0.05819
1162.0, 0.0562896
1164.0, 0.0549438
1166.0, 0.0533376
1168.0, 0.0516941
1170.0, 0.0506006
1172.0, 0.0487936
1174.0, 0.0475344
1176.0, 0.0461234
1178.0, 0.0446206
1180.0, 0.0436482
1182.0, 0.0426205
1184.0, 0.0407937
1186.0, 0.0401258
1188.0, 0.0386547
1190.0, 0.0373407
1192.0, 0.0362305
1194.0, 0.0352438
1196.0, 0.033604
1198.0, 0.0332137
1200.0, 0.031651
1202.0, 0.030722
1204.0, 0.0298502
1206.0, 0.0290102
1208.0, 0.0278801
1210.0, 0.0270298
1212.0, 0.0264413
1214.0, 0.0254325
1216.0, 0.0242766
1218.0, 0.0230992
1220.0, 0.0222059
1222.0, 0.0217259
1224.0, 0.0208554
1226.0, 0.0200914
1228.0, 0.0194269
1230.0, 0.0184651
1232.0, 0.0181137
1234.0, 0.0169197
1236.0, 0.0162007
1238.0, 0.0154598
1240.0, 0.0148176
1242.0, 0.0142198
1244.0, 0.0135514
1246.0, 0.0129541
1248.0, 0.0122392
1250.0, 0.0115202
1252.0, 0.011344
1254.0, 0.0107754
1256.0, 0.0100327
1258.0, 0.00968379
1260.0, 0.00894148
1262.0, 0.00883152
1264.0, 0.00813806
1266.0, 0.00776075
1268.0, 0.00705784
1270.0, 0.00658891
1272.0, 0.00623542
1274.0, 0.00557816
1276.0, 0.00534872
1278.0, 0.00474415
1280.0, 0.00437236
1282.0, 0.00395892
1284.0, 0.00331992
1286.0, 0.00323021
1288.0, 0.00273118
1290.0, 0.00247092
1292.0, 0.00216114
1294.0, 0.00160311
1296.0, 0.00122682
1298.0, 0.00105167
1300.0, 0.000673705
1302.0, 0.000329192
1304, 0.0
1306, 0.0
1308, 0.0
1310, 0.0
1312, 0.0
1314, 0.0
1316, 0.0
1318, 0.0
1320, 0.0
1322, 0.0
1324, 0.0
1326, 0.0
1328, 0.0
1330, 0.0
1332, 0.0
1334, 0.0
1336, 0.0
1338, 0.0
1340, 0.0
1342, 0.0
1344, 0.0
1346, 0.0
1348, 0.0
1350, 0.0
1352, 0.0
1354, 0.0
1356, 0.0
1358, 0.0
1360, 0.0
1362, 0.0
1364, 0.0
1366, 0.0
1368, 0.0
1370, 0.0
1372, 0.0
1374, 0.0
1376, 0.0
1378, 0.0
1380, 0.0
1382, 0.0
1384, 0.0
1386, 0.0
1388, 0.0
1390, 0.0
1392, 0.0
1394, 0.0
1396, 0.0
1398, 0.0
1400, 0.0
1402, 0.0
1404, 0.0
1406, 0.0
1408, 0.0
1410, 0.0
1412, 0.0
1414, 0.0
1416, 0.0
1418, 0.0
1420, 0.0
1422, 0.0
1424, 0.0
1426, 0.0
1428, 0.0
1430, 0.0
1432, 0.0
1434, 0.0
1436, 0.0
1438, 0.0
1440, 0.0
1442, 0.0
1444, 0.0
1446, 0.0
1448, 0.0
1450, 0.0
1452, 0.0
1454, 0.0
1456, 0.0
1458, 0.0
1460, 0.0
1462, 0.0
1464, 0.0
1466, 0.0
1468, 0.0
1470, 0.0
1472, 0.0
1474, 0.0
1476, 0.0
1478, 0.0
1480, 0.0
1482, 0.0
1484, 0.0
1486, 0.0
1488, 0.0
1490, 0.0
1492, 0.0
1494, 0.0
1496, 0.0
1498, 0.0
1500, 0.0
1502, 0.0
1504, 0.0
1506, 0.0
1508, 0.0
1510, 0.0
1512, 0.0
1514, 0.0
1516, 0.0
1518, 0.0
1520, 0.0
1522, 0.0
1524, 0.0
1526, 0.0
1528, 0.0
1530, 0.0
1532, 0.0
1534, 0.0
1536, 0.0
1538, 0.0
1540, 0.0
1542, 0.0
1544, 0.0
1546, 0.0
1548, 0.0
1550, 0.0
1552, 0.0
1554, 0.0
1556, 0.0
1558, 0.0
1560, 0.0
1562, 0.0
1564, 0.0
1566, 0.0
1568, 0.0
1570, 0.0
1572, 0.0
1574, 0.0
1576, 0.0
1578, 0.0
1580, 0.0
1582, 0.0
1584, 0.0
1586, 0.0
1588, 0.0
1590, 0.0
1592, 0.0
1594, 0.0
1596, 0.0
1598, 0.0
1599, 0.0