File: raw data/Dataset_2/GlassEr/GlassEr__R110084__Raman__780__0__unoriented__Raman_Data_Processed__35508.txt
30, 0.0
32, 0.0
34, 0.0
36, 0.0
38, 0.0
40, 0.0
42, 0.0
44, 0.0
46, 0.0
48, 0.0
50, 0.0
52, 0.0
54, 0.0
56, 0.0
58, 0.0
60, 0.0
62, 0.0
64, 0.0
66, 0.0
68, 0.0
70, 0.0
72, 0.0
74, 0.0
76, 0.0
78, 0.0
80, 0.0
82, 0.0
84, 0.0
86, 0.0
88, 0.0
90, 0.0
92, 0.0
94, 0.0
96.0, 0.902703
98.0, 0.900519
100.0, 0.881382
102.0, 0.869734
104.0, 0.868176
106.0, 0.870017
108.0, 0.865621
110.0, 0.859303
112.0, 0.854903
114.0, 0.858989
116.0, 0.858806
118.0, 0.857902
120.0, 0.855202
122.0, 0.857034
124.0, 0.8535
126.0, 0.84986
128.0, 0.84742
130.0, 0.848136
132.0, 0.839931
134.0, 0.845068
136.0, 0.841783
138.0, 0.837674
140.0, 0.84471
142.0, 0.843116
144.0, 0.840848
146.0, 0.837363
148.0, 0.84036
150.0, 0.83915
152.0, 0.838146
154.0, 0.8394
156.0, 0.840731
158.0, 0.83895
160.0, 0.837945
162.0, 0.837125
164.0, 0.837643
166.0, 0.838823
168.0, 0.840614
170.0, 0.844564
172.0, 0.838769
174.0, 0.836528
176.0, 0.838648
178.0, 0.840717
180.0, 0.839304
182.0, 0.842884
184.0, 0.841643
186.0, 0.842792
188.0, 0.839108
190.0, 0.84182
192.0, 0.840563
194.0, 0.845407
196.0, 0.845635
198.0, 0.844957
200.0, 0.842946
202.0, 0.848039
204.0, 0.846321
206.0, 0.851692
208.0, 0.851572
210.0, 0.852574
212.0, 0.852648
214.0, 0.84929
216.0, 0.855574
218.0, 0.856189
220.0, 0.857212
222.0, 0.859751
224.0, 0.858527
226.0, 0.860074
228.0, 0.858907
230.0, 0.863218
232.0, 0.860872
234.0, 0.868524
236.0, 0.866273
238.0, 0.866579
240.0, 0.87275
242.0, 0.874292
244.0, 0.877639
246.0, 0.880492
248.0, 0.877041
250.0, 0.87899
252.0, 0.882218
254.0, 0.883571
256.0, 0.883885
258.0, 0.884203
260.0, 0.887789
262.0, 0.892324
264.0, 0.894892
266.0, 0.893611
268.0, 0.90064
270.0, 0.898773
272.0, 0.906609
274.0, 0.904024
276.0, 0.90707
278.0, 0.909065
280.0, 0.914518
282.0, 0.914091
284.0, 0.914354
286.0, 0.920045
288.0, 0.919296
290.0, 0.927926
292.0, 0.925506
294.0, 0.930182
296.0, 0.936201
298.0, 0.934811
300.0, 0.943399
302.0, 0.943891
304.0, 0.950946
306.0, 0.952545
308.0, 0.957189
310.0, 0.96189
312.0, 0.971324
314.0, 0.971042
316.0, 0.976948
318.0, 0.975189
320.0, 0.981121
322.0, 0.984976
324.0, 0.985297
326.0, 0.985678
328.0, 0.989743
330.0, 0.989799
332.0, 0.99458
334.0, 0.993427
336.0, 0.99271
338.0, 0.99513
340.0, 0.996371
342.0, 0.995871
344.0, 0.997447
346.0, 0.993272
348.0, 0.995516
350.0, 0.993945
352.0, 0.991127
354.0, 0.99248
356.0, 0.991234
358.0, 0.993813
360.0, 0.991446
362.0, 0.985416
364.0, 0.991316
366.0, 0.993724
368.0, 0.985612
370.0, 0.993869
372.0, 0.994684
374.0, 0.990494
376.0, 0.984895
378.0, 0.987838
380.0, 0.982018
382.0, 0.983561
384.0, 0.981172
386.0, 0.97972
388.0, 0.976196
390.0, 0.973418
392.0, 0.976864
394.0, 0.973659
396.0, 0.967581
398.0, 0.969138
400.0, 0.963435
402.0, 0.958881
404.0, 0.954645
406.0, 0.956458
408.0, 0.951754
410.0, 0.95059
412.0, 0.951467
414.0, 0.946734
416.0, 0.946851
418.0, 0.943305
420.0, 0.943662
422.0, 0.942453
424.0, 0.939909
426.0, 0.940068
428.0, 0.943904
430.0, 0.938816
432.0, 0.93665
434.0, 0.930946
436.0, 0.932175
438.0, 0.928966
440.0, 0.929794
442.0, 0.926105
444.0, 0.924939
446.0, 0.924725
448.0, 0.92065
450.0, 0.915092
452.0, 0.915405
454.0, 0.912257
456.0, 0.91048
458.0, 0.908738
460.0, 0.906005
462.0, 0.904531
464.0, 0.89773
466.0, 0.894635
468.0, 0.891437
470.0, 0.89126
472.0, 0.881022
474.0, 0.881201
476.0, 0.878062
478.0, 0.877703
480.0, 0.867636
482.0, 0.867209
484.0, 0.864272
486.0, 0.858214
488.0, 0.857605
490.0, 0.856251
492.0, 0.851045
494.0, 0.850242
496.0, 0.842414
498.0, 0.84027
500.0, 0.838029
502.0, 0.833426
504.0, 0.828922
506.0, 0.8276
508.0, 0.823856
510.0, 0.822063
512.0, 0.817105
514.0, 0.810058
516.0, 0.80869
518.0, 0.799395
520.0, 0.797023
522.0, 0.787958
524.0, 0.782725
526.0, 0.776767
528.0, 0.772366
530.0, 0.765636
532.0, 0.761285
534.0, 0.752415
536.0, 0.751507
538.0, 0.746216
540.0, 0.740538
542.0, 0.733507
544.0, 0.726432
546.0, 0.726299
548.0, 0.717699
550.0, 0.714723
552.0, 0.711192
554.0, 0.71047
556.0, 0.702932
558.0, 0.700796
560.0, 0.700076
562.0, 0.694999
564.0, 0.69222
566.0, 0.688937
568.0, 0.681832
570.0, 0.678999
572.0, 0.673344
574.0, 0.665077
576.0, 0.661618
578.0, 0.65783
580.0, 0.652047
582.0, 0.641754
584.0, 0.635896
586.0, 0.62447
588.0, 0.618299
590.0, 0.613923
592.0, 0.605886
594.0, 0.600032
596.0, 0.59015
598.0, 0.585953
600.0, 0.576336
602.0, 0.569264
604.0, 0.563079
606.0, 0.556807
608.0, 0.548839
610.0, 0.54783
612.0, 0.540291
614.0, 0.534464
616.0, 0.530906
618.0, 0.525827
620.0, 0.522229
622.0, 0.514993
624.0, 0.513581
626.0, 0.512132
628.0, 0.505461
630.0, 0.507985
632.0, 0.504479
634.0, 0.501695
636.0, 0.496354
638.0, 0.497388
640.0, 0.492074
642.0, 0.48914
644.0, 0.486285
646.0, 0.483307
648.0, 0.48133
650.0, 0.480612
652.0, 0.473913
654.0, 0.471551
656.0, 0.465156
658.0, 0.46268
660.0, 0.462419
662.0, 0.456749
664.0, 0.448433
666.0, 0.446249
668.0, 0.441797
670.0, 0.435952
672.0, 0.435249
674.0, 0.428909
676.0, 0.423769
678.0, 0.416774
680.0, 0.416159
682.0, 0.404658
684.0, 0.40035
686.0, 0.395736
688.0, 0.388805
690.0, 0.383661
692.0, 0.379704
694.0, 0.373263
696.0, 0.366062
698.0, 0.361216
700.0, 0.358115
702.0, 0.353555
704.0, 0.348306
706.0, 0.344049
708.0, 0.340491
710.0, 0.332561
712.0, 0.330194
714.0, 0.325302
716.0, 0.31975
718.0, 0.317406
720.0, 0.313281
722.0, 0.302648
724.0, 0.301478
726.0, 0.301492
728.0, 0.294011
730.0, 0.287514
732.0, 0.287553
734.0, 0.282038
736.0, 0.276196
738.0, 0.275998
740.0, 0.26921
742.0, 0.263647
744.0, 0.259634
746.0, 0.259592
748.0, 0.254527
750.0, 0.246744
752.0, 0.24404
754.0, 0.243649
756.0, 0.237972
758.0, 0.233496
760.0, 0.230731
762.0, 0.227217
764.0, 0.221997
766.0, 0.218049
768.0, 0.216997
770.0, 0.212101
772.0, 0.205501
774.0, 0.20441
776.0, 0.195032
778.0, 0.196335
780.0, 0.194085
782.0, 0.191672
784.0, 0.184957
786.0, 0.179626
788.0, 0.175783
790.0, 0.172044
792.0, 0.170729
794.0, 0.163726
796.0, 0.163458
798.0, 0.160959
800.0, 0.157491
802.0, 0.150322
804.0, 0.149331
806.0, 0.148784
808.0, 0.143163
810.0, 0.14021
812.0, 0.137025
814.0, 0.135002
816.0, 0.135269
818.0, 0.133153
820.0, 0.131611
822.0, 0.129002
824.0, 0.130823
826.0, 0.127538
828.0, 0.130903
830.0, 0.131582
832.0, 0.130609
834.0, 0.130913
836.0, 0.133762
838.0, 0.13372
840.0, 0.139793
842.0, 0.141312
844.0, 0.142922
846.0, 0.149322
848.0, 0.152424
850.0, 0.158093
852.0, 0.162514
854.0, 0.164502
856.0, 0.171038
858.0, 0.176735
860.0, 0.180845
862.0, 0.18315
864.0, 0.190124
866.0, 0.192682
868.0, 0.202965
870.0, 0.207217
872.0, 0.210088
874.0, 0.215755
876.0, 0.22019
878.0, 0.22545
880.0, 0.232691
882.0, 0.235345
884.0, 0.239631
886.0, 0.243959
888.0, 0.249885
890.0, 0.251161
892.0, 0.260795
894.0, 0.260875
896.0, 0.265248
898.0, 0.273101
900.0, 0.276542
902.0, 0.281226
904.0, 0.282214
906.0, 0.288549
908.0, 0.289672
910.0, 0.297143
912.0, 0.297818
914.0, 0.306317
916.0, 0.312555
918.0, 0.317154
920.0, 0.318333
922.0, 0.322321
924.0, 0.324874
926.0, 0.330748
928.0, 0.334664
930.0, 0.33726
932.0, 0.342264
934.0, 0.350222
936.0, 0.353134
938.0, 0.351565
940.0, 0.359796
942.0, 0.362937
944.0, 0.369387
946.0, 0.376313
948.0, 0.378433
950.0, 0.383293
952.0, 0.394697
954.0, 0.399319
956.0, 0.402456
958.0, 0.411176
960.0, 0.421899
962.0, 0.424052
964.0, 0.430542
966.0, 0.434674
968.0, 0.445132
970.0, 0.448835
972.0, 0.458165
974.0, 0.464069
976.0, 0.470992
978.0, 0.474476
980.0, 0.47997
982.0, 0.484708
984.0, 0.489948
986.0, 0.490776
988.0, 0.493642
990.0, 0.496168
992.0, 0.497465
994.0, 0.496544
996.0, 0.500874
998.0, 0.499906
1000.0, 0.497118
1002.0, 0.497793
1004.0, 0.494542
1006.0, 0.490757
1008.0, 0.49158
1010.0, 0.491703
1012.0, 0.487935
1014.0, 0.484548
1016.0, 0.479727
1018.0, 0.473098
1020.0, 0.468939
1022.0, 0.469489
1024.0, 0.461632
1026.0, 0.461754
1028.0, 0.457493
1030.0, 0.454504
1032.0, 0.446686
1034.0, 0.439076
1036.0, 0.441378
1038.0, 0.433389
1040.0, 0.424942
1042.0, 0.419899
1044.0, 0.415831
1046.0, 0.407211
1048.0, 0.403362
1050.0, 0.3932
1052.0, 0.388486
1054.0, 0.378455
1056.0, 0.372464
1058.0, 0.365684
1060.0, 0.355577
1062.0, 0.346368
1064.0, 0.341726
1066.0, 0.331003
1068.0, 0.323443
1070.0, 0.312936
1072.0, 0.305995
1074.0, 0.296508
1076.0, 0.288128
1078.0, 0.278258
1080.0, 0.270974
1082.0, 0.260912
1084.0, 0.254174
1086.0, 0.246057
1088.0, 0.241138
1090.0, 0.229446
1092.0, 0.222594
1094.0, 0.216685
1096.0, 0.207916
1098.0, 0.20231
1100.0, 0.19132
1102.0, 0.186715
1104.0, 0.180985
1106.0, 0.173786
1108.0, 0.173804
1110.0, 0.161789
1112.0, 0.156052
1114.0, 0.148952
1116.0, 0.144864
1118.0, 0.139646
1120.0, 0.135737
1122.0, 0.12824
1124.0, 0.128331
1126.0, 0.12062
1128.0, 0.115057
1130.0, 0.115956
1132.0, 0.11061
1134.0, 0.105882
1136.0, 0.102686
1138.0, 0.100527
1140.0, 0.0970541
1142.0, 0.0922125
1144.0, 0.0869124
1146.0, 0.0851551
1148.0, 0.0831527
1150.0, 0.0827345
1152.0, 0.0786477
1154.0, 0.0779154
1156.0, 0.0718343
1158.0, 0.0740418
1160.0, 0.0696258
1162.0, 0.0706972
1164.0, 0.0670168
1166.0, 0.0641473
1168.0, 0.0637239
1170.0, 0.0627168
1172.0, 0.0610993
1174.0, 0.0595216
1176.0, 0.0589982
1178.0, 0.0568798
1180.0, 0.0587877
1182.0, 0.0516265
1184.0, 0.0539222
1186.0, 0.0505734
1188.0, 0.051147
1190.0, 0.0464395
1192.0, 0.0504174
1194.0, 0.0481557
1196.0, 0.0474448
1198.0, 0.0446564
1200.0, 0.042226
1202.0, 0.0440556
1204.0, 0.0435885
1206.0, 0.0409214
1208.0, 0.0416091
1210.0, 0.0407616
1212.0, 0.0421486
1214.0, 0.0365039
1216.0, 0.0364335
1218.0, 0.0361539
1220.0, 0.0355516
1222.0, 0.0349856
1224.0, 0.0308448
1226.0, 0.0326608
1228.0, 0.0310869
1230.0, 0.0325605
1232.0, 0.0275441
1234.0, 0.0274882
1236.0, 0.0290544
1238.0, 0.0290897
1240.0, 0.0246424
1242.0, 0.0221992
1244.0, 0.0216776
1246.0, 0.0231216
1248.0, 0.0199176
1250.0, 0.0213279
1252.0, 0.0198915
1254.0, 0.0174105
1256.0, 0.0153404
1258.0, 0.0162906
1260.0, 0.0139204
1262.0, 0.0148731
1264.0, 0.0118115
1266.0, 0.0133327
1268.0, 0.011663
1270.0, 0.0119113
1272.0, 0.0106662
1274.0, 0.0136782
1276.0, 0.00804357
1278.0, 0.0063246
1280.0, 0.0033408
1282.0, 0.00361569
1284.0, 0.00318076
1286, 0.0
1288, 0.0
1290, 0.0
1292, 0.0
1294, 0.0
1296, 0.0
1298, 0.0
1300, 0.0
1302, 0.0
1304, 0.0
1306, 0.0
1308, 0.0
1310, 0.0
1312, 0.0
1314, 0.0
1316, 0.0
1318, 0.0
1320, 0.0
1322, 0.0
1324, 0.0
1326, 0.0
1328, 0.0
1330, 0.0
1332, 0.0
1334, 0.0
1336, 0.0
1338, 0.0
1340, 0.0
1342, 0.0
1344, 0.0
1346, 0.0
1348, 0.0
1350, 0.0
1352, 0.0
1354, 0.0
1356, 0.0
1358, 0.0
1360, 0.0
1362, 0.0
1364, 0.0
1366, 0.0
1368, 0.0
1370, 0.0
1372, 0.0
1374, 0.0
1376, 0.0
1378, 0.0
1380, 0.0
1382, 0.0
1384, 0.0
1386, 0.0
1388, 0.0
1390, 0.0
1392, 0.0
1394, 0.0
1396, 0.0
1398, 0.0
1400, 0.0
1402, 0.0
1404, 0.0
1406, 0.0
1408, 0.0
1410, 0.0
1412, 0.0
1414, 0.0
1416, 0.0
1418, 0.0
1420, 0.0
1422, 0.0
1424, 0.0
1426, 0.0
1428, 0.0
1430, 0.0
1432, 0.0
1434, 0.0
1436, 0.0
1438, 0.0
1440, 0.0
1442, 0.0
1444, 0.0
1446, 0.0
1448, 0.0
1450, 0.0
1452, 0.0
1454, 0.0
1456, 0.0
1458, 0.0
1460, 0.0
1462, 0.0
1464, 0.0
1466, 0.0
1468, 0.0
1470, 0.0
1472, 0.0
1474, 0.0
1476, 0.0
1478, 0.0
1480, 0.0
1482, 0.0
1484, 0.0
1486, 0.0
1488, 0.0
1490, 0.0
1492, 0.0
1494, 0.0
1496, 0.0
1498, 0.0
1500, 0.0
1502, 0.0
1504, 0.0
1506, 0.0
1508, 0.0
1510, 0.0
1512, 0.0
1514, 0.0
1516, 0.0
1518, 0.0
1520, 0.0
1522, 0.0
1524, 0.0
1526, 0.0
1528, 0.0
1530, 0.0
1532, 0.0
1534, 0.0
1536, 0.0
1538, 0.0
1540, 0.0
1542, 0.0
1544, 0.0
1546, 0.0
1548, 0.0
1550, 0.0
1552, 0.0
1554, 0.0
1556, 0.0
1558, 0.0
1560, 0.0
1562, 0.0
1564, 0.0
1566, 0.0
1568, 0.0
1570, 0.0
1572, 0.0
1574, 0.0
1576, 0.0
1578, 0.0
1580, 0.0
1582, 0.0
1584, 0.0
1586, 0.0
1588, 0.0
1590, 0.0
1592, 0.0
1594, 0.0
1596, 0.0
1598, 0.0
1599, 0.0