File: raw data/Dataset_2/Graphite/Graphite__R050503__Raman__532__0__unoriented__Raman_Data_Processed__32781.txt
30, 0.0
32, 0.0
34, 0.0
36, 0.0
38, 0.0
40, 0.0
42, 0.0
44, 0.0
46, 0.0
48, 0.0
50, 0.0
52, 0.0
54, 0.0
56, 0.0
58, 0.0
60, 0.0
62, 0.0
64, 0.0
66, 0.0
68, 0.0
70, 0.0
72, 0.0
74, 0.0
76, 0.0
78, 0.0
80, 0.0
82, 0.0
84, 0.0
86, 0.0
88, 0.0
90, 0.0
92, 0.0
94, 0.0
96, 0.0
98, 0.0
100, 0.0
102, 0.0
104, 0.0
106, 0.0
108, 0.0
110, 0.0
112, 0.0
114, 0.0
116, 0.0
118, 0.0
120, 0.0
122, 0.0
124, 0.0
126, 0.0
128, 0.0
130, 0.0
132, 0.0
134, 0.0
136, 0.0
138, 0.0
140, 0.0
142, 0.0
144, 0.0
146, 0.0
148, 0.0
150, 0.0
152, 0.0
154, 0.0
156, 0.0
158, 0.0
160, 0.0
162.0, 0.00739349
164.0, 0.0119249
166.0, 0.00341664
168.0, 0.0245462
170.0, 0.027101
172.0, 0.0193893
174.0, 0.00574745
176.0, 0.0165813
178.0, 0.00463182
180.0, 0.0153334
182.0, 0.0140708
184.0, 0.0113706
186.0, 0.0312375
188.0, 0.0159114
190.0, 0.0214513
192.0, 0.0172265
194.0, 0.00645799
196.0, 0.00761828
198.0, 0.0340251
200.0, 0.0158396
202.0, 0.00185862
204.0, 0.0187813
206.0, 0.0184152
208.0, 0.0173701
210.0, 0.0142295
212.0, 0.0188513
214.0, 0.0109492
216.0, 0.00087521
218.0, 0.0242913
220.0, 0.0207273
222.0, 0.0337582
224.0, 0.0214663
226.0, 0.0118655
228.0, 0.0149095
230.0, 0.00496923
232.0, 0.027432
234.0, 0.00157315
236.0, 0.000438054
238.0, 0.0247933
240.0, 0.0138493
242.0, 0.0208201
244.0, 0.0179465
246.0, 0.0172294
248.0, 0.0275093
250.0, 0.0216717
252.0, 0.0258437
254.0, 0.0189646
256.0, 0.00850242
258.0, 0.0111101
260.0, 0.0184259
262.0, 0.0180291
264.0, 0.0189177
266.0, 0.00691757
268.0, 0.015738
270.0, 0.026244
272.0, 0.00841872
274.0, 0.0185853
276.0, 0.0045732
278.0, 0.0279521
280.0, 0.0182285
282.0, 0.0163741
284.0, 0.0228603
286.0, 0.0123859
288.0, 0.000732174
290.0, 0.0139804
292.0, 0.0236914
294.0, 0.0206164
296.0, 0.0327697
298.0, 0.0192097
300.0, 0.000532431
302.0, 0.00439893
304.0, 0.0226026
306.0, 0.0215945
308.0, 0.00958831
310.0, 0.0222685
312.0, 0.0140567
314.0, 0.026438
316.0, 0.0216698
318.0, 0.0104628
320.0, 0.0278087
322.0, 0.0198632
324.0, 0.0129393
326.0, 0.0225425
328.0, 0.0200136
330.0, 0.0178173
332.0, 0.00716952
334.0, 0.0244451
336.0, 0.01026
338.0, 0.0351979
340.0, 0.017826
342.0, 0.0164993
344.0, 0.0152204
346.0, 0.0243453
348.0, 0.0153317
350.0, 0.024488
352.0, 0.0234426
354.0, 0.031581
356.0, 0.00585447
358.0, 0.0131236
360.0, 0.0266941
362.0, 0.000511716
364.0, 0.018772
366.0, 0.0071145
368.0, 0.005208
370.0, 0.0209489
372.0, 0.0254912
374.0, 0.0173055
376.0, 0.00766599
378.0, 0.00794361
380.0, 0.00177547
382.0, 0.0153475
384.0, 0.0114218
386.0, 0.0133582
388.0, 0.00316343
390.0, 0.00942818
392.0, 0.0121866
394.0, 0.0176947
396.0, 0.000924007
398.0, 0.0142272
400.0, 0.0288285
402.0, 0.00707598
404.0, 0.0037358
406.0, 0.00664147
408.0, 0.00847686
410.0, 0.00631877
412.0, 0.00764446
414.0, 0.0095238
416.0, 0.0016168
418.0, 0.00175095
420.0, 0.00604143
422.0, 0.0168366
424.0, 0.00823659
426.0, 0.0195049
428.0, 0.00212326
430.0, 0.013392
432.0, 0.00785542
434.0, 0.0293083
436.0, 0.0113127
438.0, 0.00538244
440.0, 0.00698415
442.0, 0.00990151
444.0, 0.0191023
446.0, 0.00152272
448.0, 0.017444
450.0, 0.0131592
452.0, 0.00946017
454.0, 0.0221578
456.0, 0.0155355
458.0, 0.0133742
460.0, 0.0130967
462.0, 0.0083129
464.0, 0.0136461
466.0, 0.00126318
468.0, 0.0161329
470.0, 0.0148149
472.0, 0.0134424
474.0, 0.00826233
476.0, 0.0143678
478.0, 0.00144418
480.0, 0.0116056
482.0, 0.0098791
484.0, 0.00421513
486.0, 0.0210895
488.0, 0.00599787
490.0, 0.0241977
492.0, 0.00530727
494.0, 0.0268954
496.0, 0.00672439
498.0, 0.0153328
500.0, 0.022022
502.0, 0.00831732
504.0, 0.00825632
506.0, 0.012955
508.0, 0.0115413
510.0, 0.0127206
512.0, 0.00714641
514.0, 0.0211584
516.0, 0.00995044
518.0, 0.0154623
520.0, 0.0173691
522.0, 0.0026009
524.0, 0.0237479
526.0, 0.000370886
528.0, 0.0022392
530.0, 0.00678735
532.0, 0.0251046
534.0, 0.0253957
536.0, 0.0167133
538.0, 0.00381654
540.0, 0.000323924
542.0, 0.0243152
544.0, 0.0190859
546.0, 0.0126601
548.0, 0.00789171
550.0, 0.00625456
552.0, 0.0139426
554.0, 0.011705
556.0, 0.00728351
558.0, 0.0095177
560.0, 0.00745886
562.0, 0.0128488
564.0, 0.0219115
566.0, 0.00862358
568.0, 0.0118654
570.0, 0.0159819
572.0, 0.0110051
574.0, 0.0209228
576.0, 0.0232943
578.0, 0.0121246
580.0, 0.0114322
582.0, 0.00806559
584.0, 0.0204462
586.0, 0.014007
588.0, 0.0122713
590.0, 0.00300635
592.0, 0.0233118
594.0, 0.00186625
596.0, 0.0155979
598.0, 0.0128241
600.0, 0.0136704
602.0, 0.00732473
604.0, 0.0153381
606.0, 0.0113585
608.0, 0.011008
610.0, 0.0180712
612.0, 0.00233107
614.0, 0.00241258
616.0, 0.00669169
618.0, 0.00755272
620.0, 0.0108589
622.0, 0.00862697
624.0, 0.00976254
626.0, 0.00589494
628.0, 0.00241885
630.0, 0.0108241
632.0, 0.00882604
634.0, 0.0157322
636.0, 0.0193733
638.0, 0.0152717
640.0, 0.00990122
642.0, 0.0054027
644.0, 0.00941596
646.0, 0.0223857
648.0, 0.00551708
650.0, 0.000959515
652.0, 0.0109134
654.0, 0.00574048
656.0, 0.025489
658.0, 0.0167603
660.0, 0.0175149
662.0, 0.00759667
664.0, 0.00683974
666.0, 0.013917
668.0, 0.0124941
670.0, 0.0150695
672.0, 0.00936444
674.0, 0.0064257
676.0, 0.00377161
678.0, 0.0116519
680.0, 0.0120119
682.0, 0.0161255
684.0, 0.00559714
686.0, 0.00815695
688.0, 0.00921052
690.0, 0.00415578
692.0, 0.0124121
694.0, 0.00936664
696.0, 0.0229159
698.0, 0.00871387
700.0, 0.00386199
702.0, 0.00546009
704.0, 0.00122412
706.0, 0.00756059
708.0, 0.0128025
710.0, 0.00462332
712.0, 0.0157351
714.0, 0.00170594
716.0, 0.00628238
718.0, 0.00670609
720.0, 0.0123626
722.0, 0.0140215
724.0, 0.0113514
726.0, 0.00438783
728.0, 0.0194943
730.0, 0.00445829
732.0, 0.00381217
734.0, 0.0106015
736.0, 0.0120495
738.0, 0.0100164
740.0, 0.0011275
742.0, 0.0107163
744.0, 0.00709253
746.0, 0.0106925
748.0, 0.00814271
750.0, 0.0130853
752.0, 0.00474021
754.0, 0.00305555
756.0, 0.0104378
758.0, 0.0163298
760.0, 0.00679749
762.0, 0.013066
764.0, 0.0130296
766.0, 0.00892253
768.0, 0.0178211
770.0, 0.0120163
772.0, 0.00425398
774.0, 0.00631605
776.0, 0.00263
778.0, 0.00482979
780.0, 0.018966
782.0, 0.00668271
784.0, 0.00621605
786.0, 0.00799566
788.0, 0.0113166
790.0, 0.0117227
792.0, 0.00245993
794.0, 0.0137936
796.0, 0.0113805
798.0, 0.00966138
800.0, 0.00617501
802.0, 0.0108064
804.0, 0.00850198
806.0, 0.00286091
808.0, 0.0080568
810.0, 0.00618802
812.0, 0.00362752
814.0, 0.0212141
816.0, 0.00726974
818.0, 0.0163721
820.0, 0.0150361
822.0, 0.0125067
824.0, 0.0121069
826.0, 0.0168006
828.0, 0.0157525
830.0, 0.00624465
832.0, 0.0278978
834.0, 0.0131932
836.0, 0.00760103
838.0, 0.0185211
840.0, 0.0150402
842.0, 0.0135848
844.0, 0.0230809
846.0, 0.0184213
848.0, 0.0129698
850.0, 0.0191578
852.0, 0.0140023
854.0, 0.0123506
856.0, 0.00670467
858.0, 0.0121402
860.0, 0.0179793
862.0, 0.0133239
864.0, 0.0254815
866.0, 0.0194649
868.0, 0.0122235
870.0, 0.00687865
872.0, 0.0188526
874.0, 0.0018113
876.0, 0.00557146
878.0, 0.00714104
880.0, 0.00998345
882.0, 0.0137812
884.0, 0.0109106
886.0, 0.0121583
888.0, 0.00385959
890.0, 0.000155378
892.0, 0.00920123
894.0, 0.0028596
896.0, 0.0110111
898.0, 0.00866164
900.0, 0.00867188
902.0, 0.000669593
904.0, 0.00390586
906.0, 0.00169125
908.0, 0.0178309
910.0, 0.00629331
912.0, 0.00613561
914.0, 0.00741851
916.0, 0.00484028
918.0, 0.000673621
920.0, 0.015196
922.0, 0.00551323
924.0, 0.00387166
926.0, 0.00844974
928.0, 0.00487767
930.0, 0.00208609
932.0, 0.0126205
934.0, 0.00409003
936.0, 0.00713111
938.0, 0.00756251
940.0, 0.00418377
942.0, 0.0026891
944.0, 0.00100672
946.0, 0.00674593
948.0, 0.000622151
950.0, 0.0110875
952.0, 0.00213573
954.0, 0.00947256
956.0, 0.00728842
958.0, 0.00628425
960.0, 0.0138357
962.0, 0.00740978
964.0, 0.0126344
966.0, 0.00336943
968.0, 0.0124623
970.0, 0.0126592
972.0, 0.0151171
974.0, 0.00379939
976.0, 0.00514885
978.0, 0.0013768
980.0, 0.00846627
982.0, 0.0124842
984.0, 0.00457306
986.0, 0.000334055
988.0, 0.00610163
990.0, 0.00965114
992.0, 0.011694
994.0, 0.0120713
996.0, 0.00768829
998.0, 0.00545282
1000.0, 0.00425662
1002.0, 0.0022768
1004.0, 0.0199076
1006.0, 0.0113168
1008.0, 0.0039773
1010.0, 0.0102775
1012.0, 0.0118123
1014.0, 0.010955
1016.0, 0.00229305
1018.0, 0.0149664
1020.0, 0.0187797
1022.0, 0.0045436
1024.0, 0.00969279
1026.0, 0.0102816
1028.0, 0.00805145
1030.0, 0.00747613
1032.0, 0.0182029
1034.0, 0.0122172
1036.0, 0.0105735
1038.0, 0.01131
1040.0, 0.0138401
1042.0, 0.0154946
1044.0, 0.00302102
1046.0, 0.0158199
1048.0, 0.00277842
1050.0, 0.0193639
1052.0, 0.00516727
1054.0, 0.0114399
1056.0, 0.00872883
1058.0, 0.0126171
1060.0, 0.00884035
1062.0, 0.0109412
1064.0, 0.0110153
1066.0, 0.0210876
1068.0, 0.0117078
1070.0, 0.0148885
1072.0, 0.0120606
1074.0, 0.00793474
1076.0, 0.0136459
1078.0, 0.0126162
1080.0, 0.00634437
1082.0, 0.0155555
1084.0, 0.0179711
1086.0, 0.00434769
1088.0, 0.0161504
1090.0, 0.00775826
1092.0, 0.00816173
1094.0, 0.00409083
1096.0, 0.00473354
1098.0, 0.0112063
1100.0, 0.00706341
1102.0, 0.0115143
1104.0, 0.00628955
1106.0, 0.00516296
1108.0, 0.0165241
1110.0, 0.00300305
1112.0, 0.00612781
1114.0, 0.000819067
1116.0, 0.011642
1118.0, 0.00283322
1120.0, 0.00672341
1122.0, 0.0143058
1124.0, 0.000531337
1126.0, 0.00243166
1128.0, 0.00768158
1130.0, 0.00114553
1132.0, 0.0130054
1134.0, 0.00671544
1136.0, 0.010519
1138.0, 0.00680984
1140.0, 0.00251093
1142.0, 0.0132579
1144.0, 0.00798873
1146.0, 0.00116933
1148.0, 0.0151768
1150.0, 0.00789076
1152.0, 0.00266212
1154.0, 0.00347625
1156.0, 0.00786999
1158.0, 0.00155591
1160.0, 0.0131705
1162.0, 0.0089127
1164.0, 0.0100572
1166.0, 0.00244306
1168.0, 0.00585908
1170.0, 0.00282181
1172.0, 0.0111162
1174.0, 0.0130958
1176.0, 0.013381
1178.0, 0.00188829
1180.0, 0.0198735
1182.0, 0.0108526
1184.0, 0.0105867
1186.0, 0.0072859
1188.0, 0.00353516
1190.0, 0.0044578
1192.0, 0.0095927
1194.0, 0.00667914
1196.0, 0.0158953
1198.0, 0.0158865
1200.0, 0.0184905
1202.0, 0.000680157
1204.0, 0.0122516
1206.0, 0.00523017
1208.0, 0.00538317
1210.0, 0.0237447
1212.0, 0.018448
1214.0, 0.0115967
1216.0, 0.00521611
1218.0, 0.00255768
1220.0, 0.00816842
1222.0, 0.0205026
1224.0, 0.0155328
1226.0, 0.00966967
1228.0, 0.0155183
1230.0, 0.00857119
1232.0, 0.0135417
1234.0, 0.0202328
1236.0, 0.00460601
1238.0, 0.0126481
1240.0, 0.0101134
1242.0, 0.0142331
1244.0, 0.0123754
1246.0, 0.0121814
1248.0, 0.011426
1250.0, 0.0134798
1252.0, 0.00557116
1254.0, 0.0164447
1256.0, 0.016782
1258.0, 0.00504293
1260.0, 0.0136661
1262.0, 0.0185418
1264.0, 0.00644213
1266.0, 0.013798
1268.0, 0.0128967
1270.0, 0.0190742
1272.0, 0.0157657
1274.0, 0.00818638
1276.0, 0.00253496
1278.0, 0.00549597
1280.0, 0.0193913
1282.0, 0.0208872
1284.0, 0.00917128
1286.0, 0.0102364
1288.0, 0.00586159
1290.0, 0.0162136
1292.0, 0.0225257
1294.0, 0.0331082
1296.0, 0.000913757
1298.0, 0.0169281
1300.0, 0.00222968
1302.0, 0.0108542
1304.0, 0.00639303
1306.0, 0.00274695
1308.0, 0.0257727
1310.0, 0.00687215
1312.0, 0.0027523
1314.0, 0.00942783
1316.0, 0.00839606
1318.0, 0.0235986
1320.0, 0.00874128
1322.0, 0.0128745
1324.0, 0.0102534
1326.0, 0.0149634
1328.0, 0.0164159
1330.0, 0.00268008
1332.0, 0.0341242
1334.0, 0.00949265
1336.0, 0.0244657
1338.0, 0.0134466
1340.0, 0.0258977
1342.0, 0.0133976
1344.0, 0.0190346
1346.0, 0.0170384
1348.0, 0.0310019
1350.0, 0.0216139
1352.0, 0.0223048
1354.0, 0.0253508
1356.0, 0.0122717
1358.0, 0.0169177
1360.0, 0.0153392
1362.0, 0.00995465
1364.0, 0.0117432
1366.0, 0.00300845
1368.0, 0.0259328
1370.0, 0.0113146
1372.0, 0.00958606
1374.0, 0.0207275
1376.0, 0.0178925
1378.0, 0.00794414
1380.0, 0.0146495
1382.0, 0.0140566
1384.0, 0.00302666
1386.0, 0.0235064
1388.0, 0.0111797
1390.0, 0.0154486
1392.0, 0.00144089
1394.0, 0.00798566
1396.0, 0.00991892
1398.0, 0.00923783
1400.0, 0.00675622
1402.0, 0.00126827
1404.0, 0.0217519
1406.0, 0.00285565
1408.0, 0.014517
1410.0, 0.00742762
1412.0, 0.0115757
1414.0, 0.019188
1416.0, 0.0114721
1418.0, 0.00300278
1420.0, 0.0119865
1422.0, 0.0167484
1424.0, 0.00521744
1426.0, 0.0233011
1428.0, 0.00544068
1430.0, 0.0123867
1432.0, 0.0227895
1434.0, 0.0121546
1436.0, 0.00904572
1438.0, 0.0165754
1440.0, 0.00749338
1442.0, 0.00956314
1444.0, 0.00143163
1446.0, 0.016334
1448.0, 0.00114417
1450.0, 0.0147181
1452.0, 0.0121295
1454.0, 0.00255998
1456.0, 0.00843729
1458.0, 0.00571886
1460.0, 0.0128419
1462.0, 0.0122623
1464.0, 0.0059878
1466.0, 0.0016432
1468.0, 0.00325743
1470.0, 0.00171537
1472.0, 0.00784828
1474.0, 0.00307662
1476.0, 0.00536001
1478.0, 0.00288664
1480.0, 0.00748734
1482.0, 0.00921737
1484.0, 0.0106596
1486.0, 0.00604452
1488.0, 0.00323763
1490.0, 0.00518297
1492.0, 0.0113349
1494.0, 0.0124504
1496.0, 0.0136815
1498.0, 0.00596919
1500.0, 0.00708876
1502.0, 0.000856004
1504.0, 0.0182075
1506.0, 0.00628111
1508.0, 0.0098928
1510.0, 0.0111105
1512.0, 0.0142641
1514.0, 0.00889322
1516.0, 0.0107717
1518.0, 0.0056923
1520.0, 0.012043
1522.0, 0.00470892
1524.0, 0.00445286
1526.0, 0.000588581
1528.0, 0.00965227
1530.0, 0.015191
1532.0, 0.0169802
1534.0, 0.0149351
1536.0, 0.0161726
1538.0, 0.0212707
1540.0, 0.0198119
1542.0, 0.0201114
1544.0, 0.022178
1546.0, 0.0263432
1548.0, 0.0432142
1550.0, 0.0556558
1552.0, 0.0609391
1554.0, 0.0797521
1556.0, 0.107692
1558.0, 0.112674
1560.0, 0.12965
1562.0, 0.148581
1564.0, 0.202996
1566.0, 0.270988
1568.0, 0.339693
1570.0, 0.445536
1572.0, 0.558325
1574.0, 0.679825
1576.0, 0.823531
1578.0, 0.950067
1580.0, 0.999983
1582.0, 0.960566
1584.0, 0.817053
1586.0, 0.639418
1588.0, 0.494847
1590.0, 0.366258
1592.0, 0.256766
1594.0, 0.20041
1596.0, 0.184609
1598.0, 0.124274
1599.0, 0.121296