File: raw data/Dataset_2/Graphite/Graphite__R090047__Raman__532__0__unoriented__Raman_Data_Processed__32779.txt
30, 0.0
32, 0.0
34, 0.0
36, 0.0
38, 0.0
40, 0.0
42, 0.0
44, 0.0
46, 0.0
48, 0.0
50, 0.0
52, 0.0
54, 0.0
56, 0.0
58, 0.0
60, 0.0
62, 0.0
64, 0.0
66, 0.0
68, 0.0
70, 0.0
72, 0.0
74, 0.0
76, 0.0
78, 0.0
80, 0.0
82, 0.0
84, 0.0
86, 0.0
88, 0.0
90, 0.0
92, 0.0
94, 0.0
96, 0.0
98, 0.0
100, 0.0
102, 0.0
104, 0.0
106, 0.0
108, 0.0
110, 0.0
112, 0.0
114, 0.0
116, 0.0
118, 0.0
120, 0.0
122, 0.0
124, 0.0
126, 0.0
128, 0.0
130, 0.0
132, 0.0
134, 0.0
136, 0.0
138, 0.0
140, 0.0
142, 0.0
144, 0.0
146, 0.0
148, 0.0
150, 0.0
152.0, 0.018001
154.0, 0.043435
156.0, 0.0236838
158.0, 0.0203248
160.0, 0.0307409
162.0, 0.0318597
164.0, 0.0209736
166.0, 0.00588544
168.0, 0.0205744
170.0, 0.050251
172.0, 0.0195767
174.0, 0.0107861
176.0, 0.0247465
178.0, 0.0335963
180.0, 0.0278536
182.0, 0.0188001
184.0, 0.0130631
186.0, 0.0228203
188.0, 0.0219444
190.0, 0.00740988
192.0, 0.0218582
194.0, 0.012169
196.0, 0.0246287
198.0, 0.0102949
200.0, 0.00419667
202.0, 0.0270619
204.0, 0.0104154
206.0, 0.00916255
208.0, 0.0149544
210.0, 0.0153313
212.0, 0.0122512
214.0, 0.0175379
216.0, 0.0224846
218.0, 0.00733213
220.0, 0.0126191
222.0, 0.0076579
224.0, 0.00660066
226.0, 0.00740197
228.0, 0.0107932
230.0, 0.0134741
232.0, 0.00952087
234.0, 0.00735132
236.0, 0.0186221
238.0, 0.011261
240.0, 0.01002
242.0, 0.0063509
244.0, 0.0188052
246.0, 0.0126734
248.0, 0.00157697
250.0, 0.0145926
252.0, 0.0138351
254.0, 0.0121568
256.0, 0.0181469
258.0, 0.0117677
260.0, 0.00838583
262.0, 0.00337627
264.0, 0.0111925
266.0, 0.010723
268.0, 0.00883831
270.0, 0.0186463
272.0, 0.00862301
274.0, 0.00740271
276.0, 0.011675
278.0, 0.00966463
280.0, 0.0126083
282.0, 0.00195156
284.0, 0.00252661
286.0, 0.00608276
288.0, 0.0144382
290.0, 0.00733169
292.0, 0.00421122
294.0, 0.0103452
296.0, 0.0173601
298.0, 0.0128007
300.0, 0.0143784
302.0, 0.00725093
304.0, 0.00536598
306.0, 0.015269
308.0, 0.0153212
310.0, 0.00582676
312.0, 0.0145259
314.0, 0.0160852
316.0, 0.00319665
318.0, 0.00479474
320.0, 0.00479737
322.0, 0.0165893
324.0, 0.00202383
326.0, 0.0086061
328.0, 0.00555314
330.0, 0.012551
332.0, 0.0102482
334.0, 0.0146276
336.0, 0.0105669
338.0, 0.0204986
340.0, 0.0175432
342.0, 0.000697564
344.0, 0.0116281
346.0, 0.0125098
348.0, 0.00875831
350.0, 0.0113689
352.0, 0.00348041
354.0, 0.00927974
356.0, 0.00506909
358.0, 0.0095661
360.0, 0.0108237
362.0, 0.0032581
364.0, 0.00957243
366.0, 0.00600277
368.0, 0.0113521
370.0, 0.00223956
372.0, 0.00601163
374.0, 0.0057342
376.0, 0.00486644
378.0, 0.0072299
380.0, 0.00731476
382.0, 0.00223259
384.0, 0.00827192
386.0, 0.0118664
388.0, 0.0109686
390.0, 0.00946917
392.0, 0.00709806
394.0, 0.0118352
396.0, 0.00757588
398.0, 0.0111944
400.0, 0.0033382
402.0, 0.0063269
404.0, 0.00578756
406.0, 0.00875006
408.0, 0.0061809
410.0, 0.00603676
412.0, 0.00852831
414.0, 0.00876157
416.0, 0.0138502
418.0, 0.00928482
420.0, 0.0037917
422.0, 0.0034863
424.0, 0.00147383
426.0, 0.00156089
428.0, 0.00474349
430.0, 0.00384782
432.0, 0.00254959
434.0, 0.00329769
436.0, 0.00231666
438.0, 0.013407
440.0, 0.00856984
442.0, 0.0047456
444.0, 0.00466533
446.0, 0.00818646
448.0, 0.00663064
450.0, 0.00501433
452.0, 0.00220272
454.0, 0.00131769
456.0, 0.00176401
458.0, 0.00974723
460.0, 0.00941528
462.0, 0.00727981
464.0, 0.00251324
466.0, 0.0100179
468.0, 0.00365102
470.0, 0.00269597
472.0, 0.00226883
474.0, 0.0102606
476.0, 0.0107314
478.0, 0.00864504
480.0, 0.0122861
482.0, 0.00632528
484.0, 0.0111207
486.0, 0.00906937
488.0, 0.00920391
490.0, 0.0145346
492.0, 0.0160696
494.0, 0.0122955
496.0, 0.00863028
498.0, 0.007409
500.0, 0.012288
502.0, 0.0158333
504.0, 0.0146149
506.0, 0.00907705
508.0, 0.00465344
510.0, 0.00711369
512.0, 0.00970061
514.0, 0.0124837
516.0, 0.00823566
518.0, 0.0161015
520.0, 0.00370814
522.0, 0.0135908
524.0, 0.0108133
526.0, 0.0135137
528.0, 0.00307073
530.0, 0.00232395
532.0, 0.00424547
534.0, 0.00745272
536.0, 0.0066718
538.0, 0.012857
540.0, 0.0123849
542.0, 0.0192097
544.0, 0.00210837
546.0, 0.0158974
548.0, 0.0140127
550.0, 0.00901517
552.0, 0.00758502
554.0, 0.0167929
556.0, 0.0152412
558.0, 0.0100482
560.0, 0.0110875
562.0, 0.0098664
564.0, 0.00665589
566.0, 0.00819885
568.0, 0.00991047
570.0, 0.0129321
572.0, 0.0075084
574.0, 0.0112699
576.0, 0.00995729
578.0, 0.0103972
580.0, 0.00820206
582.0, 0.00639731
584.0, 0.00332307
586.0, 0.00385687
588.0, 0.0166382
590.0, 0.00897977
592.0, 0.0155513
594.0, 0.00677354
596.0, 0.00176368
598.0, 0.0111993
600.0, 0.00935656
602.0, 0.0104161
604.0, 0.00809472
606.0, 0.00716155
608.0, 0.00917913
610.0, 0.00283277
612.0, 0.0103538
614.0, 0.0129235
616.0, 0.0060001
618.0, 0.00306887
620.0, 0.00543228
622.0, 0.00662197
624.0, 0.00715325
626.0, 0.0104619
628.0, 0.00716425
630.0, 0.0027067
632.0, 0.00937654
634.0, 0.00340246
636.0, 0.00131511
638.0, 0.0163156
640.0, 0.0042614
642.0, 0.00954207
644.0, 0.0106071
646.0, 0.0059561
648.0, 0.00447956
650.0, 0.00645764
652.0, 0.00798023
654.0, 0.00657335
656.0, 0.0111277
658.0, 0.00800567
660.0, 0.0034849
662.0, 0.00950442
664.0, 0.00879989
666.0, 0.00238532
668.0, 0.00636487
670.0, 0.00418297
672.0, 0.010368
674.0, 0.00793477
676.0, 0.00916869
678.0, 0.00475491
680.0, 0.00452322
682.0, 0.00184797
684.0, 0.00892674
686.0, 0.00703451
688.0, 0.00916974
690.0, 0.00344734
692.0, 0.00441471
694.0, 0.00223894
696.0, 0.00418717
698.0, 0.00522203
700.0, 0.0120036
702.0, 0.00516946
704.0, 0.00442756
706.0, 0.00816307
708.0, 0.00175905
710.0, 0.00380594
712.0, 0.00129998
714.0, 0.00700328
716.0, 0.00216345
718.0, 0.00754091
720.0, 0.0028161
722.0, 0.00263349
724.0, 0.00186828
726.0, 0.00275401
728.0, 0.00312473
730.0, 0.00668552
732.0, 0.00241106
734.0, 0.00380286
736.0, 0.00247952
738.0, 0.0051334
740.0, 0.00461455
742.0, 0.00352236
744.0, 0.00856386
746.0, 0.00391469
748.0, 0.0125732
750.0, 0.00712724
752.0, 0.00654469
754.0, 0.00505835
756.0, 0.0028985
758.0, 0.00505822
760.0, 0.00515362
762.0, 0.00719308
764.0, 0.00978233
766.0, 0.00468929
768.0, 0.00616682
770.0, 0.00748311
772.0, 0.0116479
774.0, 0.0097035
776.0, 0.00197487
778.0, 0.0112252
780.0, 0.00523496
782.0, 0.01105
784.0, 0.00769821
786.0, 0.00813392
788.0, 0.00433451
790.0, 0.00346899
792.0, 0.00797009
794.0, 0.0104104
796.0, 0.00818819
798.0, 0.00790982
800.0, 0.010988
802.0, 0.0075627
804.0, 0.00342352
806.0, 0.011433
808.0, 0.010853
810.0, 0.0142796
812.0, 0.00722405
814.0, 0.00867663
816.0, 0.0121112
818.0, 0.0114817
820.0, 0.0126286
822.0, 0.0164366
824.0, 0.0119613
826.0, 0.0153359
828.0, 0.0129915
830.0, 0.0109871
832.0, 0.0188731
834.0, 0.0173674
836.0, 0.0147602
838.0, 0.0165198
840.0, 0.0141255
842.0, 0.0126662
844.0, 0.0131742
846.0, 0.0199459
848.0, 0.0257032
850.0, 0.0162307
852.0, 0.0176009
854.0, 0.022488
856.0, 0.0171488
858.0, 0.0156108
860.0, 0.0107596
862.0, 0.0255128
864.0, 0.0168863
866.0, 0.0171478
868.0, 0.0162903
870.0, 0.0152576
872.0, 0.017022
874.0, 0.0100342
876.0, 0.0179264
878.0, 0.0131226
880.0, 0.00606899
882.0, 0.0110136
884.0, 0.0135547
886.0, 0.00658797
888.0, 0.00604312
890.0, 0.00830465
892.0, 0.00281225
894.0, 0.00404601
896.0, 0.00196538
898.0, 0.00604924
900.0, 0.00222966
902.0, 0.00457595
904.0, 0.00292026
906.0, 0.00453846
908.0, 0.00171238
910.0, 0.00205376
912.0, 0.00172717
914.0, 0.00132776
916.0, 0.0047748
918.0, 0.00277556
920.0, 0.00706919
922.0, 0.0019841
924.0, 0.0168959
926.0, 0.00878646
928.0, 0.00327708
930.0, 0.00472093
932.0, 0.00612751
934.0, 0.00434367
936.0, 0.0138324
938.0, 0.00187999
940.0, 0.00479792
942.0, 0.00505651
944.0, 0.0017154
946.0, 0.00318913
948.0, 0.0060621
950.0, 0.00215613
952.0, 0.0112363
954.0, 0.00750689
956.0, 0.00354689
958.0, 0.00551841
960.0, 0.00543677
962.0, 0.00162902
964.0, 0.00726037
966.0, 0.00463774
968.0, 0.00596336
970.0, 0.00455988
972.0, 0.00710687
974.0, 0.00350272
976.0, 0.0060029
978.0, 0.00382167
980.0, 0.00618493
982.0, 0.00583711
984.0, 0.00442204
986.0, 0.00698863
988.0, 0.0138695
990.0, 0.00417984
992.0, 0.00602904
994.0, 0.00525547
996.0, 0.00644391
998.0, 0.00519136
1000.0, 0.011997
1002.0, 0.00907582
1004.0, 0.00310482
1006.0, 0.00697893
1008.0, 0.00685952
1010.0, 0.00732268
1012.0, 0.00613377
1014.0, 0.00991238
1016.0, 0.00588318
1018.0, 0.0065722
1020.0, 0.00742281
1022.0, 0.010926
1024.0, 0.0107698
1026.0, 0.00763423
1028.0, 0.013067
1030.0, 0.0136468
1032.0, 0.0124229
1034.0, 0.0139838
1036.0, 0.0118426
1038.0, 0.0159821
1040.0, 0.0184765
1042.0, 0.0119263
1044.0, 0.0152241
1046.0, 0.0106614
1048.0, 0.0136193
1050.0, 0.0110712
1052.0, 0.0113984
1054.0, 0.0141896
1056.0, 0.00504457
1058.0, 0.00969194
1060.0, 0.00623014
1062.0, 0.00920923
1064.0, 0.0118604
1066.0, 0.00973053
1068.0, 0.00978744
1070.0, 0.0125553
1072.0, 0.00824436
1074.0, 0.00580539
1076.0, 0.00679781
1078.0, 0.00174003
1080.0, 0.00547856
1082.0, 0.0104774
1084.0, 0.0062291
1086.0, 0.00273923
1088.0, 0.00530456
1090.0, 0.00381008
1092.0, 0.00534447
1094.0, 0.00839615
1096.0, 0.00637337
1098.0, 0.0103505
1100.0, 0.00566639
1102.0, 0.00656549
1104.0, 0.00543804
1106.0, 0.00658432
1108.0, 0.00346633
1110.0, 0.00964339
1112.0, 0.00215264
1114.0, 0.00891588
1116.0, 0.00403299
1118.0, 0.00749772
1120.0, 0.0113375
1122.0, 0.00361238
1124.0, 0.0104448
1126.0, 0.00825177
1128.0, 0.00551728
1130.0, 0.00255273
1132.0, 0.00552908
1134.0, 0.00421544
1136.0, 0.00780274
1138.0, 0.00628245
1140.0, 0.00432688
1142.0, 0.00235414
1144.0, 0.00978375
1146.0, 0.00575701
1148.0, 0.0016257
1150.0, 0.0105591
1152.0, 0.00377697
1154.0, 0.00503295
1156.0, 0.00548868
1158.0, 0.00264187
1160.0, 0.00817924
1162.0, 0.00909676
1164.0, 0.0113247
1166.0, 0.0102072
1168.0, 0.00673867
1170.0, 0.0153299
1172.0, 0.00395725
1174.0, 0.00346355
1176.0, 0.00699819
1178.0, 0.00404558
1180.0, 0.00993009
1182.0, 0.0132863
1184.0, 0.00352273
1186.0, 0.014008
1188.0, 0.00708567
1190.0, 0.0129206
1192.0, 0.00854396
1194.0, 0.0110739
1196.0, 0.00631531
1198.0, 0.0160605
1200.0, 0.00788577
1202.0, 0.00912626
1204.0, 0.0154135
1206.0, 0.0102102
1208.0, 0.0127452
1210.0, 0.00910667
1212.0, 0.00715939
1214.0, 0.00984731
1216.0, 0.00564443
1218.0, 0.0105229
1220.0, 0.0131199
1222.0, 0.0115656
1224.0, 0.0132421
1226.0, 0.0129539
1228.0, 0.00634683
1230.0, 0.0076212
1232.0, 0.0098767
1234.0, 0.00960967
1236.0, 0.00968708
1238.0, 0.011575
1240.0, 0.0140479
1242.0, 0.00247009
1244.0, 0.0064564
1246.0, 0.00814085
1248.0, 0.00837238
1250.0, 0.00695504
1252.0, 0.00883905
1254.0, 0.0035507
1256.0, 0.00195582
1258.0, 0.00325729
1260.0, 0.0138327
1262.0, 0.00574133
1264.0, 0.011366
1266.0, 0.00685931
1268.0, 0.0041857
1270.0, 0.0104621
1272.0, 0.0091895
1274.0, 0.0143778
1276.0, 0.00488199
1278.0, 0.0107661
1280.0, 0.00291136
1282.0, 0.0125538
1284.0, 0.00619999
1286.0, 0.00755509
1288.0, 0.00699196
1290.0, 0.00292172
1292.0, 0.00543332
1294.0, 0.00579323
1296.0, 0.00793335
1298.0, 0.00649016
1300.0, 0.0089468
1302.0, 0.0023022
1304.0, 0.0134954
1306.0, 0.00231429
1308.0, 0.00318564
1310.0, 0.00512864
1312.0, 0.00825175
1314.0, 0.00252407
1316.0, 0.00729974
1318.0, 0.00786167
1320.0, 0.00326834
1322.0, 0.0095572
1324.0, 0.00944049
1326.0, 0.00860237
1328.0, 0.00368993
1330.0, 0.00746027
1332.0, 0.00851994
1334.0, 0.00605109
1336.0, 0.00924654
1338.0, 0.0120836
1340.0, 0.00557788
1342.0, 0.0043126
1344.0, 0.00145061
1346.0, 0.0199022
1348.0, 0.00794106
1350.0, 0.00287135
1352.0, 0.00662986
1354.0, 0.00512428
1356.0, 0.0178017
1358.0, 0.00633592
1360.0, 0.0203191
1362.0, 0.013665
1364.0, 0.0151966
1366.0, 0.00792926
1368.0, 0.00837163
1370.0, 0.00936823
1372.0, 0.00767828
1374.0, 0.00635786
1376.0, 0.00789577
1378.0, 0.00858184
1380.0, 0.0138825
1382.0, 0.0103383
1384.0, 0.00636207
1386.0, 0.0125318
1388.0, 0.0104732
1390.0, 0.00904196
1392.0, 0.0137021
1394.0, 0.0151293
1396.0, 0.00679204
1398.0, 0.00643122
1400.0, 0.0162493
1402.0, 0.0127382
1404.0, 0.0051936
1406.0, 0.0112707
1408.0, 0.00876197
1410.0, 0.00210662
1412.0, 0.00743412
1414.0, 0.0117416
1416.0, 0.00963866
1418.0, 0.00865836
1420.0, 0.00734032
1422.0, 0.0113522
1424.0, 0.0176302
1426.0, 0.00326182
1428.0, 0.00771296
1430.0, 0.00305119
1432.0, 0.00822715
1434.0, 0.00556806
1436.0, 0.00295997
1438.0, 0.00931419
1440.0, 0.00825223
1442.0, 0.00533247
1444.0, 0.0087835
1446.0, 0.0016022
1448.0, 0.0152481
1450.0, 0.0114551
1452.0, 0.0122517
1454.0, 0.0121054
1456.0, 0.00855686
1458.0, 0.00510212
1460.0, 0.00795284
1462.0, 0.0068659
1464.0, 0.0125886
1466.0, 0.00986479
1468.0, 0.0107095
1470.0, 0.00926362
1472.0, 0.0029152
1474.0, 0.00976783
1476.0, 0.00917577
1478.0, 0.00333478
1480.0, 0.00615668
1482.0, 0.00327193
1484.0, 0.00872637
1486.0, 0.00267721
1488.0, 0.00215687
1490.0, 0.00594738
1492.0, 0.00892602
1494.0, 0.0112263
1496.0, 0.0040869
1498.0, 0.00447171
1500.0, 0.0116098
1502.0, 0.00526784
1504.0, 0.0129045
1506.0, 0.00892698
1508.0, 0.00388883
1510.0, 0.00542885
1512.0, 0.00870118
1514.0, 0.00670338
1516.0, 0.00215622
1518.0, 0.00202511
1520.0, 0.00289077
1522.0, 0.0051297
1524.0, 0.00590501
1526.0, 0.00740822
1528.0, 0.00218968
1530.0, 0.00750373
1532.0, 0.00729974
1534.0, 0.00973582
1536.0, 0.0112756
1538.0, 0.0182855
1540.0, 0.0160638
1542.0, 0.0248173
1544.0, 0.0282122
1546.0, 0.0321821
1548.0, 0.0457299
1550.0, 0.0593591
1552.0, 0.0623303
1554.0, 0.0931823
1556.0, 0.122921
1558.0, 0.114072
1560.0, 0.138279
1562.0, 0.172581
1564.0, 0.228032
1566.0, 0.290805
1568.0, 0.375258
1570.0, 0.4692
1572.0, 0.580974
1574.0, 0.706284
1576.0, 0.833447
1578.0, 0.944071
1580.0, 0.999981
1582.0, 0.94969
1584.0, 0.788915
1586.0, 0.601176
1588.0, 0.438852
1590.0, 0.338305
1592.0, 0.245805
1594.0, 0.186473
1596.0, 0.149397
1598.0, 0.119046
1599.0, 0.104004