File: raw data/Dataset_2/Clinoferroholmquistite/Clinoferroholmquistite__R110165__Raman__780__0__unoriented__Raman_Data_Processed__35801.txt
30, 0.0
32, 0.0
34, 0.0
36, 0.0
38, 0.0
40, 0.0
42, 0.0
44, 0.0
46, 0.0
48, 0.0
50, 0.0
52, 0.0
54, 0.0
56, 0.0
58, 0.0
60, 0.0
62, 0.0
64, 0.0
66, 0.0
68, 0.0
70, 0.0
72, 0.0
74, 0.0
76, 0.0
78, 0.0
80, 0.0
82, 0.0
84, 0.0
86, 0.0
88, 0.0
90, 0.0
92, 0.0
94, 0.0
96, 0.0
98, 0.0
100, 0.0
102, 0.0
104, 0.0
106, 0.0
108, 0.0
110, 0.0
112, 0.0
114, 0.0
116, 0.0
118, 0.0
120, 0.0
122, 0.0
124, 0.0
126, 0.0
128, 0.0
130, 0.0
132, 0.0
134, 0.0
136, 0.0
138, 0.0
140, 0.0
142, 0.0
144, 0.0
146, 0.0
148, 0.0
150, 0.0
152, 0.0
154, 0.0
156, 0.0
158.0, 0.00185917
160.0, 0.00111579
162.0, 0.00562625
164.0, 0.0113808
166.0, 0.0299529
168.0, 0.0773428
170.0, 0.125702
172.0, 0.186148
174.0, 0.253228
176.0, 0.311631
178.0, 0.39917
180.0, 0.480308
182.0, 0.598398
184.0, 0.720716
186.0, 0.871346
188.0, 0.977158
190.0, 0.999069
192.0, 0.879792
194.0, 0.67133
196.0, 0.435928
198.0, 0.265799
200.0, 0.165901
202.0, 0.106983
204.0, 0.0799629
206.0, 0.0696042
208.0, 0.0754851
210.0, 0.0953717
212.0, 0.113471
214.0, 0.123433
216.0, 0.114627
218.0, 0.0968276
220.0, 0.0647523
222.0, 0.0497822
224.0, 0.0414362
226.0, 0.0289291
228.0, 0.0293307
230.0, 0.029582
232.0, 0.0249681
234.0, 0.029359
236.0, 0.0370772
238.0, 0.050526
240.0, 0.0492394
242.0, 0.0594108
244.0, 0.0504348
246.0, 0.0606407
248.0, 0.0577191
250.0, 0.0515921
252.0, 0.0514552
254.0, 0.0418436
256.0, 0.0364362
258.0, 0.0321836
260.0, 0.0328868
262.0, 0.0152656
264.0, 0.0120763
266.0, 0.0019625
268.0, 0.00332537
270.0, 0.0126432
272.0, 0.00627128
274.0, 0.0175831
276.0, 0.00194195
278.0, 0.0053361
280.0, 0.00530939
282.0, 0.00422785
284.0, 0.0092901
286.0, 0.00940468
288.0, 0.0250915
290.0, 0.030361
292.0, 0.048697
294.0, 0.0530615
296.0, 0.0568836
298.0, 0.0575202
300.0, 0.0649809
302.0, 0.0677795
304.0, 0.0603651
306.0, 0.0550968
308.0, 0.0483392
310.0, 0.0384682
312.0, 0.0356907
314.0, 0.0328051
316.0, 0.0275497
318.0, 0.019972
320.0, 0.0146072
322.0, 0.0207141
324.0, 0.0152977
326.0, 0.00319726
328.0, 0.00375739
330.0, 0.00488026
332.0, 0.0129207
334.0, 0.00330262
336.0, 0.0176096
338.0, 0.021794
340.0, 0.0204604
342.0, 0.0211109
344.0, 0.0257484
346.0, 0.0165698
348.0, 0.0177943
350.0, 0.0185963
352.0, 0.0162164
354.0, 0.0187357
356.0, 0.0152753
358.0, 0.0142011
360.0, 0.0183393
362.0, 0.0169975
364.0, 0.0239937
366.0, 0.0207179
368.0, 0.0264166
370.0, 0.0425531
372.0, 0.0520942
374.0, 0.0708714
376.0, 0.0858569
378.0, 0.112678
380.0, 0.136598
382.0, 0.171767
384.0, 0.190848
386.0, 0.209604
388.0, 0.197796
390.0, 0.160511
392.0, 0.121224
394.0, 0.0933199
396.0, 0.0799238
398.0, 0.0709696
400.0, 0.0691561
402.0, 0.0675608
404.0, 0.0650019
406.0, 0.0741454
408.0, 0.0823593
410.0, 0.0847262
412.0, 0.0914434
414.0, 0.110782
416.0, 0.117601
418.0, 0.121802
420.0, 0.118629
422.0, 0.104187
424.0, 0.0807769
426.0, 0.054323
428.0, 0.0295777
430.0, 0.0158615
432.0, 0.00496999
434.0, 0.00229066
436.0, 0.00146924
438.0, 0.00143648
440.0, 0.00194996
442.0, 0.0030742
444.0, 0.0153563
446.0, 0.0136714
448.0, 0.0221747
450.0, 0.0285057
452.0, 0.0305789
454.0, 0.0290918
456.0, 0.0180203
458.0, 0.0127679
460.0, 0.00899944
462.0, 0.000783219
464.0, 0.00305523
466.0, 0.00111142
468.0, 0.00819218
470.0, 0.00219667
472.0, 0.00456401
474.0, 0.00241249
476.0, 0.00927881
478.0, 0.00601062
480.0, 0.00361826
482.0, 0.00258747
484.0, 0.00235195
486.0, 0.0135231
488.0, 0.00461311
490.0, 0.0122962
492.0, 0.0180938
494.0, 0.0210341
496.0, 0.0262111
498.0, 0.0281251
500.0, 0.0281653
502.0, 0.0252022
504.0, 0.032357
506.0, 0.03123
508.0, 0.0241414
510.0, 0.0319221
512.0, 0.0332299
514.0, 0.0378113
516.0, 0.0427966
518.0, 0.0552465
520.0, 0.0608114
522.0, 0.076546
524.0, 0.0863703
526.0, 0.0969674
528.0, 0.105671
530.0, 0.112073
532.0, 0.111906
534.0, 0.119591
536.0, 0.134699
538.0, 0.13148
540.0, 0.146877
542.0, 0.145612
544.0, 0.151675
546.0, 0.162314
548.0, 0.164383
550.0, 0.171339
552.0, 0.156863
554.0, 0.148255
556.0, 0.13764
558.0, 0.123853
560.0, 0.114052
562.0, 0.101328
564.0, 0.0921847
566.0, 0.0830383
568.0, 0.0792303
570.0, 0.0737321
572.0, 0.0716024
574.0, 0.0680532
576.0, 0.063383
578.0, 0.0556121
580.0, 0.0517677
582.0, 0.0455596
584.0, 0.0445954
586.0, 0.0463446
588.0, 0.0391774
590.0, 0.0388636
592.0, 0.0308861
594.0, 0.0366944
596.0, 0.0336138
598.0, 0.0391726
600.0, 0.0322518
602.0, 0.0346155
604.0, 0.0377992
606.0, 0.036116
608.0, 0.0387893
610.0, 0.0379791
612.0, 0.0284422
614.0, 0.0204975
616.0, 0.0157014
618.0, 0.00429946
620.0, 0.00678483
622.0, 0.00873426
624.0, 0.00696792
626.0, 0.00644031
628.0, 0.00198371
630.0, 0.00430713
632.0, 0.0052527
634.0, 0.00238087
636.0, 0.0108363
638.0, 0.00877554
640.0, 0.0110468
642.0, 0.020195
644.0, 0.0154848
646.0, 0.0229916
648.0, 0.0184757
650.0, 0.0306227
652.0, 0.0372902
654.0, 0.0419241
656.0, 0.0568806
658.0, 0.0737382
660.0, 0.097959
662.0, 0.122202
664.0, 0.164409
666.0, 0.210715
668.0, 0.276146
670.0, 0.351046
672.0, 0.447417
674.0, 0.554492
676.0, 0.601176
678.0, 0.566067
680.0, 0.45862
682.0, 0.351905
684.0, 0.260256
686.0, 0.199774
688.0, 0.15555
690.0, 0.126428
692.0, 0.105921
694.0, 0.0816085
696.0, 0.0667778
698.0, 0.0560628
700.0, 0.0520901
702.0, 0.0538923
704.0, 0.0355676
706.0, 0.0394496
708.0, 0.0352342
710.0, 0.0338927
712.0, 0.021572
714.0, 0.0113455
716.0, 0.00484349
718.0, 0.00800654
720.0, 0.00675322
722.0, 0.0041745
724.0, 0.00782589
726.0, 0.00237489
728.0, 0.013857
730.0, 0.00161811
732.0, 0.00812276
734.0, 0.0141656
736.0, 0.00320267
738.0, 0.00662336
740.0, 0.0127271
742.0, 0.0188029
744.0, 0.0118381
746.0, 0.00981157
748.0, 0.021095
750.0, 0.0218085
752.0, 0.0135018
754.0, 0.0136647
756.0, 0.0058763
758.0, 0.00369595
760.0, 0.00286357
762.0, 0.0022768
764.0, 0.00129983
766.0, 0.00210367
768.0, 7.18715e-05
770.0, 0.000866565
772.0, 0.002333
774.0, 0.00858794
776.0, 0.0175644
778.0, 0.0136659
780.0, 0.030608
782.0, 0.01259
784.0, 0.0305556
786.0, 0.0366303
788.0, 0.0243841
790.0, 0.0221609
792.0, 0.022955
794.0, 0.0157628
796.0, 0.0161182
798.0, 0.0120497
800.0, 0.0106841
802.0, 0.00603166
804.0, 0.00385647
806.0, 0.00779859
808.0, 0.00427106
810.0, 0.00227784
812.0, 0.00874649
814.0, 0.00289955
816.0, 0.00134342
818.0, 0.00606537
820.0, 0.00239395
822.0, 0.00918208
824.0, 0.00287898
826.0, 0.0073559
828.0, 0.0111469
830.0, 0.00630813
832.0, 0.00937802
834.0, 0.0096014
836.0, 0.011659
838.0, 0.0137693
840.0, 0.0135983
842.0, 0.0125235
844.0, 0.0142484
846.0, 0.0192878
848.0, 0.0150389
850.0, 0.0152524
852.0, 0.0193926
854.0, 0.0172502
856.0, 0.0173212
858.0, 0.0139155
860.0, 0.0233724
862.0, 0.0191952
864.0, 0.0180094
866.0, 0.0250068
868.0, 0.0236329
870.0, 0.0233837
872.0, 0.026106
874.0, 0.0321385
876.0, 0.0336284
878.0, 0.0284177
880.0, 0.0323901
882.0, 0.0317334
884.0, 0.0389189
886.0, 0.0334498
888.0, 0.029876
890.0, 0.0249274
892.0, 0.0255548
894.0, 0.0223779
896.0, 0.0165287
898.0, 0.01437
900.0, 0.00720664
902.0, 0.00950562
904.0, 0.0029229
906.0, 0.0114168
908.0, 0.00453517
910.0, 0.00449322
912.0, 0.00275548
914.0, 0.00724584
916.0, 0.00448413
918.0, 0.00206963
920.0, 0.00361304
922.0, 0.00526842
924.0, 0.000702595
926.0, 0.00288422
928.0, 0.000717043
930.0, 0.00192823
932.0, 0.00144082
934.0, 0.00425209
936.0, 0.00587017
938.0, 0.00325088
940.0, 0.00319177
942.0, 0.000549775
944.0, 0.0031671
946.0, 0.000774342
948.0, 0.00279605
950.0, 0.0022834
952.0, 0.00432202
954.0, 0.00633666
956.0, 0.00695355
958.0, 0.0012638
960.0, 0.00902253
962.0, 0.00334849
964.0, 0.00626975
966.0, 0.00401623
968.0, 0.01282
970.0, 0.011965
972.0, 0.0124469
974.0, 0.0195154
976.0, 0.0166803
978.0, 0.0237045
980.0, 0.0349299
982.0, 0.0409966
984.0, 0.0541629
986.0, 0.0498907
988.0, 0.0673883
990.0, 0.0733001
992.0, 0.0755829
994.0, 0.0749082
996.0, 0.0636776
998.0, 0.0492685
1000.0, 0.0358126
1002.0, 0.0249207
1004.0, 0.0134303
1006.0, 0.0116206
1008.0, 0.0111425
1010.0, 0.00580784
1012.0, 0.0125109
1014.0, 0.0120703
1016.0, 0.0234515
1018.0, 0.0239431
1020.0, 0.0244753
1022.0, 0.0264146
1024.0, 0.0319364
1026.0, 0.0301708
1028.0, 0.0256772
1030.0, 0.0294087
1032.0, 0.0359352
1034.0, 0.0255844
1036.0, 0.0408805
1038.0, 0.0482603
1040.0, 0.0548929
1042.0, 0.0542269
1044.0, 0.0505964
1046.0, 0.0522072
1048.0, 0.0576059
1050.0, 0.0564154
1052.0, 0.0575578
1054.0, 0.0665401
1056.0, 0.0699775
1058.0, 0.0715978
1060.0, 0.0668109
1062.0, 0.0674566
1064.0, 0.0520389
1066.0, 0.0403807
1068.0, 0.0464413
1070.0, 0.0307919
1072.0, 0.0197932
1074.0, 0.0157345
1076.0, 0.00666844
1078.0, 0.00805954
1080.0, 0.010108
1082.0, 0.00982523
1084.0, 0.000753382
1086.0, 0.00493876
1088.0, 0.00311608
1090.0, 0.000309321
1092.0, 0.00949034
1094.0, 0.00471078
1096.0, 0.00441653
1098.0, 0.00287866
1100.0, 0.00359751
1102.0, 0.00231376
1104.0, 0.0025788
1106.0, 0.00426191
1108.0, 0.00428337
1110.0, 0.00476706
1112.0, 0.00425762
1114.0, 0.00136944
1116.0, 0.00129743
1118.0, 0.00468017
1120.0, 0.00566633
1122.0, 0.0100127
1124.0, 0.0120918
1126.0, 0.0113703
1128.0, 0.00842256
1130.0, 0.0107615
1132.0, 0.00779423
1134.0, 0.00304717
1136.0, 0.00598372
1138.0, 0.00953248
1140.0, 0.0121297
1142.0, 0.012122
1144.0, 0.0159905
1146.0, 0.0102372
1148.0, 0.0155808
1150.0, 0.0109108
1152.0, 0.0118747
1154.0, 0.0128407
1156.0, 0.0108673
1158.0, 0.00748626
1160.0, 0.0097141
1162.0, 0.00318342
1164.0, 0.00361595
1166.0, 0.00149274
1168.0, 0.00146806
1170.0, 0.000912735
1172.0, 0.00175716
1174.0, 0.00361382
1176.0, 0.00304313
1178.0, 0.000441696
1180.0, 0.00291046
1182.0, 0.00183364
1184.0, 0.00156602
1186.0, 0.00497921
1188.0, 0.0018602
1190.0, 0.0033503
1192.0, 0.00738879
1194.0, 0.00484507
1196.0, 0.00749607
1198.0, 0.00334228
1200.0, 0.00570048
1202.0, 0.00482121
1204.0, 0.00527388
1206.0, 0.0036899
1208.0, 0.00946063
1210.0, 0.0101908
1212.0, 0.00592397
1214.0, 0.00650202
1216.0, 0.00849138
1218.0, 0.0135591
1220.0, 0.0098153
1222.0, 0.0116233
1224.0, 0.00715024
1226.0, 0.0118007
1228.0, 0.0097451
1230.0, 0.0107559
1232.0, 0.0116227
1234.0, 0.00528008
1236.0, 0.00534487
1238.0, 0.0109955
1240.0, 0.00553349
1242.0, 0.00591937
1244.0, 0.00632108
1246.0, 0.00169006
1248.0, 0.00497046
1250.0, 0.00520393
1252.0, 0.00596728
1254.0, 0.00488814
1256.0, 0.00489129
1258.0, 0.00664968
1260.0, 0.00611058
1262.0, 0.0154514
1264.0, 0.00334025
1266.0, 0.00938363
1268.0, 0.00941973
1270.0, 0.00690726
1272.0, 0.00454132
1274.0, 0.00666183
1276.0, 0.000498704
1278.0, 0.0100743
1280.0, 0.0014897
1282.0, 0.00843498
1284.0, 7.99295e-05
1286, 0.0
1288, 0.0
1290, 0.0
1292, 0.0
1294, 0.0
1296, 0.0
1298, 0.0
1300, 0.0
1302, 0.0
1304, 0.0
1306, 0.0
1308, 0.0
1310, 0.0
1312, 0.0
1314, 0.0
1316, 0.0
1318, 0.0
1320, 0.0
1322, 0.0
1324, 0.0
1326, 0.0
1328, 0.0
1330, 0.0
1332, 0.0
1334, 0.0
1336, 0.0
1338, 0.0
1340, 0.0
1342, 0.0
1344, 0.0
1346, 0.0
1348, 0.0
1350, 0.0
1352, 0.0
1354, 0.0
1356, 0.0
1358, 0.0
1360, 0.0
1362, 0.0
1364, 0.0
1366, 0.0
1368, 0.0
1370, 0.0
1372, 0.0
1374, 0.0
1376, 0.0
1378, 0.0
1380, 0.0
1382, 0.0
1384, 0.0
1386, 0.0
1388, 0.0
1390, 0.0
1392, 0.0
1394, 0.0
1396, 0.0
1398, 0.0
1400, 0.0
1402, 0.0
1404, 0.0
1406, 0.0
1408, 0.0
1410, 0.0
1412, 0.0
1414, 0.0
1416, 0.0
1418, 0.0
1420, 0.0
1422, 0.0
1424, 0.0
1426, 0.0
1428, 0.0
1430, 0.0
1432, 0.0
1434, 0.0
1436, 0.0
1438, 0.0
1440, 0.0
1442, 0.0
1444, 0.0
1446, 0.0
1448, 0.0
1450, 0.0
1452, 0.0
1454, 0.0
1456, 0.0
1458, 0.0
1460, 0.0
1462, 0.0
1464, 0.0
1466, 0.0
1468, 0.0
1470, 0.0
1472, 0.0
1474, 0.0
1476, 0.0
1478, 0.0
1480, 0.0
1482, 0.0
1484, 0.0
1486, 0.0
1488, 0.0
1490, 0.0
1492, 0.0
1494, 0.0
1496, 0.0
1498, 0.0
1500, 0.0
1502, 0.0
1504, 0.0
1506, 0.0
1508, 0.0
1510, 0.0
1512, 0.0
1514, 0.0
1516, 0.0
1518, 0.0
1520, 0.0
1522, 0.0
1524, 0.0
1526, 0.0
1528, 0.0
1530, 0.0
1532, 0.0
1534, 0.0
1536, 0.0
1538, 0.0
1540, 0.0
1542, 0.0
1544, 0.0
1546, 0.0
1548, 0.0
1550, 0.0
1552, 0.0
1554, 0.0
1556, 0.0
1558, 0.0
1560, 0.0
1562, 0.0
1564, 0.0
1566, 0.0
1568, 0.0
1570, 0.0
1572, 0.0
1574, 0.0
1576, 0.0
1578, 0.0
1580, 0.0
1582, 0.0
1584, 0.0
1586, 0.0
1588, 0.0
1590, 0.0
1592, 0.0
1594, 0.0
1596, 0.0
1598, 0.0
1599, 0.0