File: raw data/Dataset_2/Clinoferroholmquistite/Clinoferroholmquistite__R110165__Raman__532__0__unoriented__Raman_Data_Processed__35798.txt
30, 0.0
32, 0.0
34, 0.0
36, 0.0
38, 0.0
40, 0.0
42, 0.0
44, 0.0
46, 0.0
48, 0.0
50, 0.0
52, 0.0
54, 0.0
56, 0.0
58, 0.0
60, 0.0
62, 0.0
64, 0.0
66, 0.0
68, 0.0
70, 0.0
72, 0.0
74, 0.0
76, 0.0
78, 0.0
80, 0.0
82, 0.0
84, 0.0
86, 0.0
88, 0.0
90, 0.0
92, 0.0
94, 0.0
96, 0.0
98, 0.0
100, 0.0
102, 0.0
104, 0.0
106, 0.0
108, 0.0
110, 0.0
112, 0.0
114, 0.0
116, 0.0
118, 0.0
120, 0.0
122, 0.0
124, 0.0
126, 0.0
128, 0.0
130, 0.0
132, 0.0
134, 0.0
136, 0.0
138, 0.0
140, 0.0
142, 0.0
144, 0.0
146, 0.0
148, 0.0
150, 0.0
152, 0.0
154, 0.0
156, 0.0
158, 0.0
160, 0.0
162, 0.0
164, 0.0
166, 0.0
168, 0.0
170, 0.0
172, 0.0
174.0, 0.00346643
176.0, 0.0864261
178.0, 0.21352
180.0, 0.325694
182.0, 0.412698
184.0, 0.552369
186.0, 0.692175
188.0, 0.786666
190.0, 0.825005
192.0, 0.800669
194.0, 0.635998
196.0, 0.477602
198.0, 0.319519
200.0, 0.238827
202.0, 0.184711
204.0, 0.143259
206.0, 0.106896
208.0, 0.108682
210.0, 0.112806
212.0, 0.110024
214.0, 0.0789131
216.0, 0.0786655
218.0, 0.0384614
220.0, 0.00387499
222.0, 0.0100739
224.0, 0.00179164
226.0, 0.00618366
228.0, 0.00175688
230.0, 0.00564233
232.0, 0.020416
234.0, 0.00360739
236.0, 0.0168985
238.0, 0.0287631
240.0, 0.0340314
242.0, 0.0177586
244.0, 0.0507769
246.0, 0.0589891
248.0, 0.0540491
250.0, 0.0610375
252.0, 0.0611228
254.0, 0.0462957
256.0, 0.0519136
258.0, 0.0456505
260.0, 0.0260546
262.0, 0.0161839
264.0, 0.0398252
266.0, 0.0036157
268.0, 0.00322063
270.0, 0.00779785
272.0, 0.0191263
274.0, 0.0029632
276.0, 0.00719014
278.0, 0.00339698
280.0, 0.00847705
282.0, 0.0139361
284.0, 0.00320038
286.0, 0.010347
288.0, 0.0123404
290.0, 0.00846854
292.0, 0.0143707
294.0, 0.0336808
296.0, 0.0340464
298.0, 0.0470156
300.0, 0.0224457
302.0, 0.0304931
304.0, 0.0373028
306.0, 0.0366652
308.0, 0.0268723
310.0, 0.0247945
312.0, 0.0122392
314.0, 0.0237569
316.0, 0.00134636
318.0, 0.0131335
320.0, 0.0120227
322.0, 0.0148854
324.0, 0.010244
326.0, 0.0154095
328.0, 0.0147065
330.0, 0.0264071
332.0, 0.0410819
334.0, 0.0158235
336.0, 0.0304542
338.0, 0.0309994
340.0, 0.0391775
342.0, 0.0550893
344.0, 0.0491179
346.0, 0.0515601
348.0, 0.0211278
350.0, 0.0334338
352.0, 0.035625
354.0, 0.0252298
356.0, 0.0206452
358.0, 0.0093903
360.0, 0.024004
362.0, 0.0253521
364.0, 0.0470229
366.0, 0.0351409
368.0, 0.0375726
370.0, 0.082237
372.0, 0.101182
374.0, 0.126263
376.0, 0.159258
378.0, 0.195576
380.0, 0.231506
382.0, 0.260824
384.0, 0.309684
386.0, 0.323436
388.0, 0.323521
390.0, 0.272513
392.0, 0.210341
394.0, 0.163071
396.0, 0.134796
398.0, 0.137439
400.0, 0.125402
402.0, 0.104611
404.0, 0.0896159
406.0, 0.103882
408.0, 0.101864
410.0, 0.105847
412.0, 0.115596
414.0, 0.103871
416.0, 0.121192
418.0, 0.110764
420.0, 0.0980415
422.0, 0.0680745
424.0, 0.0756044
426.0, 0.0453317
428.0, 0.0271457
430.0, 0.0127293
432.0, 0.00753925
434.0, 0.0096244
436.0, 0.00462207
438.0, 0.0043575
440.0, 0.0140507
442.0, 0.0116961
444.0, 0.0300039
446.0, 0.0211932
448.0, 0.0310516
450.0, 0.0317584
452.0, 0.0399158
454.0, 0.0418995
456.0, 0.0227768
458.0, 0.0230596
460.0, 0.014723
462.0, 0.0156776
464.0, 0.0116151
466.0, 0.00756299
468.0, 0.0101964
470.0, 0.004317
472.0, 0.00819801
474.0, 0.0032533
476.0, 0.0177346
478.0, 0.000810924
480.0, 0.00588088
482.0, 0.00637435
484.0, 0.0184435
486.0, 0.0484208
488.0, 0.0227931
490.0, 0.0251594
492.0, 0.0335099
494.0, 0.029191
496.0, 0.0314254
498.0, 0.0329474
500.0, 0.0310859
502.0, 0.0224695
504.0, 0.0348591
506.0, 0.0362198
508.0, 0.0211158
510.0, 0.0399417
512.0, 0.0359294
514.0, 0.0482878
516.0, 0.0457409
518.0, 0.0693598
520.0, 0.0760016
522.0, 0.0917733
524.0, 0.105609
526.0, 0.128555
528.0, 0.134751
530.0, 0.135101
532.0, 0.145181
534.0, 0.157728
536.0, 0.161009
538.0, 0.165754
540.0, 0.176314
542.0, 0.178577
544.0, 0.166215
546.0, 0.179457
548.0, 0.18135
550.0, 0.178452
552.0, 0.183428
554.0, 0.168936
556.0, 0.178508
558.0, 0.157946
560.0, 0.153572
562.0, 0.128125
564.0, 0.138125
566.0, 0.118163
568.0, 0.12338
570.0, 0.115727
572.0, 0.116967
574.0, 0.121499
576.0, 0.128528
578.0, 0.111454
580.0, 0.119072
582.0, 0.0971817
584.0, 0.0966364
586.0, 0.106686
588.0, 0.096449
590.0, 0.111617
592.0, 0.109583
594.0, 0.10126
596.0, 0.123775
598.0, 0.119374
600.0, 0.119812
602.0, 0.117683
604.0, 0.113177
606.0, 0.116681
608.0, 0.1164
610.0, 0.110897
612.0, 0.0943454
614.0, 0.0671295
616.0, 0.0504366
618.0, 0.0362042
620.0, 0.0271754
622.0, 0.00523152
624.0, 0.00470701
626.0, 0.00103079
628.0, 0.0111792
630.0, 0.00758978
632.0, 0.010301
634.0, 0.0048829
636.0, 0.00466866
638.0, 0.0175919
640.0, 0.0169697
642.0, 0.0228036
644.0, 0.0288383
646.0, 0.0466591
648.0, 0.0497642
650.0, 0.0631762
652.0, 0.0718225
654.0, 0.092441
656.0, 0.122156
658.0, 0.158739
660.0, 0.204991
662.0, 0.264972
664.0, 0.341432
666.0, 0.445176
668.0, 0.543331
670.0, 0.674467
672.0, 0.79549
674.0, 0.920888
676.0, 0.994165
678.0, 0.952916
680.0, 0.838115
682.0, 0.658596
684.0, 0.509168
686.0, 0.406578
688.0, 0.326848
690.0, 0.253238
692.0, 0.191206
694.0, 0.177197
696.0, 0.144241
698.0, 0.119241
700.0, 0.102974
702.0, 0.0818504
704.0, 0.0654145
706.0, 0.0659562
708.0, 0.0576602
710.0, 0.0444118
712.0, 0.036915
714.0, 0.0269982
716.0, 0.00765576
718.0, 0.0169437
720.0, 0.00195206
722.0, 0.00339543
724.0, 0.00467012
726.0, 0.0039289
728.0, 0.00665006
730.0, 0.00766492
732.0, 0.0244736
734.0, 0.0189129
736.0, 0.0115151
738.0, 0.0194776
740.0, 0.022659
742.0, 0.0332217
744.0, 0.0295268
746.0, 0.0453071
748.0, 0.052306
750.0, 0.0369719
752.0, 0.0471054
754.0, 0.0327675
756.0, 0.0243539
758.0, 0.0187774
760.0, 0.0115906
762.0, 0.00658452
764.0, 0.00732624
766.0, 0.0040606
768.0, 0.00235919
770.0, 0.00618684
772.0, 0.00160817
774.0, 0.00894922
776.0, 0.0185529
778.0, 0.0374545
780.0, 0.0565578
782.0, 0.0668506
784.0, 0.0818154
786.0, 0.0888984
788.0, 0.101488
790.0, 0.0808476
792.0, 0.0544048
794.0, 0.0522018
796.0, 0.0432674
798.0, 0.00622946
800.0, 0.00983241
802.0, 0.0150277
804.0, 0.0205373
806.0, 0.0126536
808.0, 0.0099853
810.0, 0.0171996
812.0, 0.0131798
814.0, 0.00951232
816.0, 0.021545
818.0, 0.00977353
820.0, 0.000932871
822.0, 0.0124447
824.0, 0.00890101
826.0, 0.0156006
828.0, 0.0106671
830.0, 0.0103409
832.0, 0.0339321
834.0, 0.0320175
836.0, 0.0292809
838.0, 0.0337624
840.0, 0.0364295
842.0, 0.036161
844.0, 0.0448838
846.0, 0.0344953
848.0, 0.0393854
850.0, 0.0327593
852.0, 0.0547438
854.0, 0.0487366
856.0, 0.047852
858.0, 0.0665039
860.0, 0.0550363
862.0, 0.0679165
864.0, 0.0603652
866.0, 0.0795717
868.0, 0.0656528
870.0, 0.0741845
872.0, 0.0940978
874.0, 0.0989935
876.0, 0.107619
878.0, 0.112183
880.0, 0.118274
882.0, 0.123307
884.0, 0.109707
886.0, 0.117004
888.0, 0.106744
890.0, 0.115853
892.0, 0.0837083
894.0, 0.0722171
896.0, 0.0603313
898.0, 0.0503977
900.0, 0.047533
902.0, 0.0402392
904.0, 0.0285086
906.0, 0.0150406
908.0, 0.0137613
910.0, 0.0157996
912.0, 0.0015954
914.0, 0.00269105
916.0, 0.00349315
918.0, 0.0122684
920.0, 0.0104363
922.0, 0.00274969
924.0, 0.0049483
926.0, 0.00213564
928.0, 0.00887703
930.0, 0.00139998
932.0, 0.000878676
934.0, 0.00431643
936.0, 0.00126261
938.0, 0.00364711
940.0, 0.00661514
942.0, 0.0138444
944.0, 0.0119979
946.0, 0.00949727
948.0, 0.0043497
950.0, 0.00647353
952.0, 0.0109938
954.0, 0.0131812
956.0, 0.0146369
958.0, 0.0241045
960.0, 0.0279785
962.0, 0.0302909
964.0, 0.0371353
966.0, 0.0191387
968.0, 0.0383176
970.0, 0.0360778
972.0, 0.0427824
974.0, 0.0439191
976.0, 0.0752687
978.0, 0.0813441
980.0, 0.0965296
982.0, 0.139899
984.0, 0.160914
986.0, 0.187757
988.0, 0.218769
990.0, 0.234716
992.0, 0.247576
994.0, 0.225088
996.0, 0.193874
998.0, 0.164295
1000.0, 0.121909
1002.0, 0.072623
1004.0, 0.0433457
1006.0, 0.0494955
1008.0, 0.0382561
1010.0, 0.0376374
1012.0, 0.0515103
1014.0, 0.0514365
1016.0, 0.0503533
1018.0, 0.078936
1020.0, 0.0761673
1022.0, 0.077202
1024.0, 0.0802211
1026.0, 0.0771953
1028.0, 0.0751722
1030.0, 0.0744206
1032.0, 0.0816006
1034.0, 0.0967924
1036.0, 0.104137
1038.0, 0.106978
1040.0, 0.125667
1042.0, 0.12824
1044.0, 0.0980274
1046.0, 0.127196
1048.0, 0.128709
1050.0, 0.149606
1052.0, 0.149609
1054.0, 0.147587
1056.0, 0.149713
1058.0, 0.14852
1060.0, 0.131636
1062.0, 0.120588
1064.0, 0.105094
1066.0, 0.0615736
1068.0, 0.0480886
1070.0, 0.0374393
1072.0, 0.0244684
1074.0, 0.026469
1076.0, 0.00268861
1078.0, 0.00331798
1080.0, 0.0153289
1082.0, 0.00883457
1084.0, 0.00685044
1086.0, 0.00294892
1088.0, 0.0151368
1090.0, 0.00752426
1092.0, 0.00969594
1094.0, 0.00763062
1096.0, 0.00102465
1098.0, 0.00955803
1100.0, 0.00476608
1102.0, 0.00988615
1104.0, 0.0179041
1106.0, 0.00841173
1108.0, 0.00364137
1110.0, 0.0219271
1112.0, 0.0322654
1114.0, 0.0254969
1116.0, 0.0137113
1118.0, 0.0283896
1120.0, 0.0343924
1122.0, 0.036477
1124.0, 0.0410629
1126.0, 0.0451019
1128.0, 0.0463357
1130.0, 0.0498986
1132.0, 0.0231898
1134.0, 0.0223976
1136.0, 0.0345183
1138.0, 0.0286417
1140.0, 0.0144185
1142.0, 0.0349541
1144.0, 0.0318877
1146.0, 0.0156275
1148.0, 0.0247556
1150.0, 0.0323664
1152.0, 0.0364602
1154.0, 0.0426304
1156.0, 0.0241256
1158.0, 0.0206927
1160.0, 0.0183028
1162.0, 0.025968
1164.0, 0.020012
1166.0, 0.0141035
1168.0, 0.00602816
1170.0, 0.00320807
1172.0, 0.00835816
1174.0, 0.00726333
1176.0, 0.00278802
1178.0, 0.0073168
1180.0, 0.00252791
1182.0, 0.00172628
1184.0, 0.0110862
1186.0, 0.0114535
1188.0, 0.0136272
1190.0, 0.0121954
1192.0, 0.000706538
1194.0, 0.00120522
1196.0, 0.00617782
1198.0, 0.0105615
1200.0, 0.0239032
1202.0, 0.0138019
1204.0, 0.0165627
1206.0, 0.0197499
1208.0, 0.0159288
1210.0, 0.019983
1212.0, 0.00416865
1214.0, 0.0191346
1216.0, 0.0214477
1218.0, 0.0147656
1220.0, 0.0122791
1222.0, 0.0303247
1224.0, 0.0217863
1226.0, 0.0254769
1228.0, 0.0199734
1230.0, 0.0137038
1232.0, 0.0226923
1234.0, 0.0259267
1236.0, 0.033123
1238.0, 0.028287
1240.0, 0.0088989
1242.0, 0.0148907
1244.0, 0.0215688
1246.0, 0.021422
1248.0, 0.0213177
1250.0, 0.00897478
1252.0, 0.0129955
1254.0, 0.0191521
1256.0, 0.0155596
1258.0, 0.0104432
1260.0, 0.0216178
1262.0, 0.0091979
1264.0, 0.0195827
1266.0, 0.00951308
1268.0, 0.0205252
1270.0, 0.00953016
1272.0, 0.0161542
1274.0, 0.00880593
1276.0, 0.0130589
1278.0, 0.0158214
1280.0, 0.00329951
1282.0, 0.0104829
1284.0, 0.00695048
1286.0, 0.0274425
1288.0, 0.0169045
1290.0, 0.0181763
1292.0, 0.0146215
1294.0, 0.00983977
1296.0, 0.0195457
1298.0, 0.00826786
1300.0, 0.013875
1302.0, 0.00154107
1304, 0.0
1306, 0.0
1308, 0.0
1310, 0.0
1312, 0.0
1314, 0.0
1316, 0.0
1318, 0.0
1320, 0.0
1322, 0.0
1324, 0.0
1326, 0.0
1328, 0.0
1330, 0.0
1332, 0.0
1334, 0.0
1336, 0.0
1338, 0.0
1340, 0.0
1342, 0.0
1344, 0.0
1346, 0.0
1348, 0.0
1350, 0.0
1352, 0.0
1354, 0.0
1356, 0.0
1358, 0.0
1360, 0.0
1362, 0.0
1364, 0.0
1366, 0.0
1368, 0.0
1370, 0.0
1372, 0.0
1374, 0.0
1376, 0.0
1378, 0.0
1380, 0.0
1382, 0.0
1384, 0.0
1386, 0.0
1388, 0.0
1390, 0.0
1392, 0.0
1394, 0.0
1396, 0.0
1398, 0.0
1400, 0.0
1402, 0.0
1404, 0.0
1406, 0.0
1408, 0.0
1410, 0.0
1412, 0.0
1414, 0.0
1416, 0.0
1418, 0.0
1420, 0.0
1422, 0.0
1424, 0.0
1426, 0.0
1428, 0.0
1430, 0.0
1432, 0.0
1434, 0.0
1436, 0.0
1438, 0.0
1440, 0.0
1442, 0.0
1444, 0.0
1446, 0.0
1448, 0.0
1450, 0.0
1452, 0.0
1454, 0.0
1456, 0.0
1458, 0.0
1460, 0.0
1462, 0.0
1464, 0.0
1466, 0.0
1468, 0.0
1470, 0.0
1472, 0.0
1474, 0.0
1476, 0.0
1478, 0.0
1480, 0.0
1482, 0.0
1484, 0.0
1486, 0.0
1488, 0.0
1490, 0.0
1492, 0.0
1494, 0.0
1496, 0.0
1498, 0.0
1500, 0.0
1502, 0.0
1504, 0.0
1506, 0.0
1508, 0.0
1510, 0.0
1512, 0.0
1514, 0.0
1516, 0.0
1518, 0.0
1520, 0.0
1522, 0.0
1524, 0.0
1526, 0.0
1528, 0.0
1530, 0.0
1532, 0.0
1534, 0.0
1536, 0.0
1538, 0.0
1540, 0.0
1542, 0.0
1544, 0.0
1546, 0.0
1548, 0.0
1550, 0.0
1552, 0.0
1554, 0.0
1556, 0.0
1558, 0.0
1560, 0.0
1562, 0.0
1564, 0.0
1566, 0.0
1568, 0.0
1570, 0.0
1572, 0.0
1574, 0.0
1576, 0.0
1578, 0.0
1580, 0.0
1582, 0.0
1584, 0.0
1586, 0.0
1588, 0.0
1590, 0.0
1592, 0.0
1594, 0.0
1596, 0.0
1598, 0.0
1599, 0.0