File: raw data/Dataset_2/Ferroedenite/Ferroedenite__R060044__Raman__780__0__unoriented__Raman_Data_Processed__26887.txt
30, 0.0
32, 0.0
34, 0.0
36, 0.0
38, 0.0
40, 0.0
42, 0.0
44, 0.0
46, 0.0
48, 0.0
50, 0.0
52, 0.0
54, 0.0
56, 0.0
58, 0.0
60, 0.0
62, 0.0
64, 0.0
66, 0.0
68, 0.0
70, 0.0
72, 0.0
74, 0.0
76, 0.0
78, 0.0
80, 0.0
82, 0.0
84, 0.0
86, 0.0
88, 0.0
90, 0.0
92, 0.0
94, 0.0
96, 0.0
98, 0.0
100, 0.0
102, 0.0
104, 0.0
106, 0.0
108, 0.0
110, 0.0
112, 0.0
114, 0.0
116, 0.0
118, 0.0
120, 0.0
122, 0.0
124, 0.0
126, 0.0
128, 0.0
130, 0.0
132, 0.0
134, 0.0
136, 0.0
138, 0.0
140, 0.0
142, 0.0
144, 0.0
146, 0.0
148, 0.0
150, 0.0
152, 0.0
154, 0.0
156, 0.0
158, 0.0
160, 0.0
162, 0.0
164, 0.0
166, 0.0
168, 0.0
170, 0.0
172, 0.0
174, 0.0
176, 0.0
178, 0.0
180, 0.0
182.0, 0.00910773
184.0, 0.00395443
186.0, 0.0432465
188.0, 0.00389104
190.0, 0.0344816
192.0, 0.0244614
194.0, 0.0735131
196.0, 0.138792
198.0, 0.133194
200.0, 0.122702
202.0, 0.172474
204.0, 0.258623
206.0, 0.306035
208.0, 0.31826
210.0, 0.365017
212.0, 0.404053
214.0, 0.439818
216.0, 0.448272
218.0, 0.463975
220.0, 0.453514
222.0, 0.494399
224.0, 0.471403
226.0, 0.435482
228.0, 0.410505
230.0, 0.366719
232.0, 0.368491
234.0, 0.306007
236.0, 0.317986
238.0, 0.233562
240.0, 0.239497
242.0, 0.191135
244.0, 0.168147
246.0, 0.108397
248.0, 0.108716
250.0, 0.0553389
252.0, 0.0666022
254.0, 0.0531166
256.0, 0.0321267
258.0, 0.0204135
260.0, 0.00777187
262.0, 0.0140558
264.0, 0.0255168
266.0, 0.0426008
268.0, 0.0612997
270.0, 0.0516872
272.0, 0.0738152
274.0, 0.0746341
276.0, 0.0871946
278.0, 0.076903
280.0, 0.0633758
282.0, 0.119396
284.0, 0.0624109
286.0, 0.0686383
288.0, 0.122587
290.0, 0.0569921
292.0, 0.0708448
294.0, 0.0818539
296.0, 0.0592221
298.0, 0.0963131
300.0, 0.0672608
302.0, 0.0555883
304.0, 0.0363684
306.0, 0.0776869
308.0, 0.0608564
310.0, 0.0448209
312.0, 0.032101
314.0, 0.0312352
316.0, 0.052442
318.0, 0.0204899
320.0, 0.0154199
322.0, 0.0145462
324.0, 0.0122824
326.0, 0.0143362
328.0, 0.0250236
330.0, 0.0192445
332.0, 0.00894613
334.0, 0.0112501
336.0, 0.0219267
338.0, 0.0386646
340.0, 0.048688
342.0, 0.0577033
344.0, 0.0571276
346.0, 0.0838797
348.0, 0.0673882
350.0, 0.103736
352.0, 0.0558802
354.0, 0.0319001
356.0, 0.0665334
358.0, 0.0871765
360.0, 0.0735816
362.0, 0.0818362
364.0, 0.0925724
366.0, 0.13853
368.0, 0.0629011
370.0, 0.141407
372.0, 0.125483
374.0, 0.116872
376.0, 0.108883
378.0, 0.0624825
380.0, 0.043373
382.0, 0.0688795
384.0, 0.0700505
386.0, 0.0240021
388.0, 0.052343
390.0, 0.0434964
392.0, 0.0188132
394.0, 0.020241
396.0, 0.00462561
398.0, 0.0339506
400.0, 0.0261673
402.0, 0.0243718
404.0, 0.00165286
406.0, 0.00439454
408.0, 0.0243659
410.0, 0.0179564
412.0, 0.0587932
414.0, 0.0565608
416.0, 0.043502
418.0, 0.0843975
420.0, 0.10943
422.0, 0.0970925
424.0, 0.100523
426.0, 0.138671
428.0, 0.111667
430.0, 0.107676
432.0, 0.0922443
434.0, 0.0865168
436.0, 0.0565794
438.0, 0.038266
440.0, 0.0576486
442.0, 0.0440333
444.0, 0.0226566
446.0, 0.043885
448.0, 0.00362104
450.0, 0.0394873
452.0, 0.0271538
454.0, 0.0106392
456.0, 0.0198289
458.0, 0.0250536
460.0, 0.00519151
462.0, 0.00684112
464.0, 0.00582869
466.0, 0.00646143
468.0, 0.0211458
470.0, 0.0238348
472.0, 0.0310539
474.0, 0.0199745
476.0, 0.0246745
478.0, 0.0582922
480.0, 0.0429312
482.0, 0.0726635
484.0, 0.108359
486.0, 0.0582812
488.0, 0.147404
490.0, 0.114659
492.0, 0.164815
494.0, 0.150104
496.0, 0.169341
498.0, 0.20357
500.0, 0.233726
502.0, 0.229131
504.0, 0.270353
506.0, 0.265449
508.0, 0.277387
510.0, 0.301641
512.0, 0.332118
514.0, 0.350675
516.0, 0.392825
518.0, 0.414032
520.0, 0.426059
522.0, 0.415375
524.0, 0.445318
526.0, 0.43616
528.0, 0.448158
530.0, 0.480962
532.0, 0.443617
534.0, 0.442487
536.0, 0.406379
538.0, 0.402602
540.0, 0.405614
542.0, 0.37374
544.0, 0.378076
546.0, 0.333826
548.0, 0.322901
550.0, 0.299356
552.0, 0.287731
554.0, 0.25506
556.0, 0.227441
558.0, 0.248585
560.0, 0.189888
562.0, 0.189603
564.0, 0.203227
566.0, 0.128362
568.0, 0.138937
570.0, 0.121345
572.0, 0.154411
574.0, 0.0827685
576.0, 0.0598402
578.0, 0.0398124
580.0, 0.0231179
582.0, 0.00086063
584.0, 0.0172602
586.0, 0.00887814
588.0, 0.0266204
590.0, 0.0135715
592.0, 0.0244412
594.0, 0.0149868
596.0, 0.00821511
598.0, 0.0273448
600.0, 0.0233855
602.0, 0.030986
604.0, 0.0523031
606.0, 0.0347988
608.0, 0.0809719
610.0, 0.0718403
612.0, 0.0881402
614.0, 0.110825
616.0, 0.0822699
618.0, 0.133971
620.0, 0.1482
622.0, 0.16241
624.0, 0.196206
626.0, 0.22315
628.0, 0.265937
630.0, 0.284516
632.0, 0.34197
634.0, 0.352128
636.0, 0.397462
638.0, 0.432045
640.0, 0.535789
642.0, 0.561668
644.0, 0.663023
646.0, 0.70834
648.0, 0.781105
650.0, 0.85192
652.0, 0.92982
654.0, 0.981601
656.0, 0.997258
658.0, 0.950017
660.0, 0.984708
662.0, 0.917267
664.0, 0.874248
666.0, 0.758433
668.0, 0.664486
670.0, 0.614889
672.0, 0.491867
674.0, 0.406006
676.0, 0.362289
678.0, 0.291232
680.0, 0.225396
682.0, 0.186365
684.0, 0.160662
686.0, 0.161648
688.0, 0.130039
690.0, 0.128439
692.0, 0.11914
694.0, 0.0931705
696.0, 0.128312
698.0, 0.0919941
700.0, 0.0945565
702.0, 0.0782631
704.0, 0.100169
706.0, 0.121479
708.0, 0.0987493
710.0, 0.107914
712.0, 0.100068
714.0, 0.0864301
716.0, 0.0865457
718.0, 0.0960017
720.0, 0.0433752
722.0, 0.057781
724.0, 0.078128
726.0, 0.0390615
728.0, 0.0650214
730.0, 0.0412063
732.0, 0.0409474
734.0, 0.0480044
736.0, 0.016075
738.0, 0.0215596
740.0, 0.0138659
742.0, 0.0128213
744.0, 0.0105043
746.0, 0.0106132
748.0, 0.0370681
750.0, 0.0211631
752.0, 0.0279516
754.0, 0.0135308
756.0, 0.0060771
758.0, 0.00691243
760.0, 0.00641831
762.0, 0.00821153
764.0, 0.0466344
766.0, 0.0673759
768.0, 0.0734582
770.0, 0.0625548
772.0, 0.0889661
774.0, 0.10609
776.0, 0.0862404
778.0, 0.0784531
780.0, 0.108909
782.0, 0.0850582
784.0, 0.103012
786.0, 0.128552
788.0, 0.0910641
790.0, 0.133182
792.0, 0.154434
794.0, 0.131722
796.0, 0.193759
798.0, 0.179483
800.0, 0.174032
802.0, 0.181965
804.0, 0.196711
806.0, 0.181503
808.0, 0.207934
810.0, 0.209324
812.0, 0.220075
814.0, 0.249811
816.0, 0.205664
818.0, 0.209416
820.0, 0.214586
822.0, 0.170817
824.0, 0.16085
826.0, 0.169889
828.0, 0.160685
830.0, 0.161393
832.0, 0.142348
834.0, 0.137217
836.0, 0.148227
838.0, 0.116887
840.0, 0.0692199
842.0, 0.0892638
844.0, 0.115614
846.0, 0.0750065
848.0, 0.0760715
850.0, 0.0382364
852.0, 0.0503941
854.0, 0.0374841
856.0, 0.0429256
858.0, 0.0399194
860.0, 0.00934961
862.0, 0.0209283
864.0, 0.00599625
866.0, 0.00845115
868.0, 0.0389011
870.0, 0.0218955
872.0, 0.0192264
874.0, 0.0489481
876.0, 0.0114808
878.0, 0.0026095
880.0, 0.0212714
882.0, 0.00717512
884.0, 0.0254903
886.0, 0.0121978
888.0, 0.0458324
890.0, 0.0278633
892.0, 0.022775
894.0, 0.0332917
896.0, 0.0290944
898.0, 0.014388
900.0, 0.0383649
902.0, 0.00837596
904.0, 0.0177274
906.0, 0.0236546
908.0, 0.017837
910.0, 0.0237498
912.0, 0.0407155
914.0, 0.00198222
916.0, 0.0276931
918.0, 0.0194262
920.0, 0.00884268
922.0, 0.00451943
924.0, 0.00737757
926.0, 0.00173123
928.0, 0.0117802
930.0, 0.00310519
932.0, 0.00198397
934.0, 0.00389859
936.0, 0.0219872
938.0, 0.00276884
940.0, 0.00322784
942.0, 0.0176708
944.0, 0.0287961
946.0, 0.057817
948.0, 0.0419258
950.0, 0.043969
952.0, 0.00254178
954.0, 0.0429597
956.0, 0.0360045
958.0, 0.0241716
960.0, 0.0152885
962.0, 0.0270536
964.0, 0.00824878
966.0, 0.0150914
968.0, 0.0241232
970.0, 0.0179874
972.0, 0.0178393
974.0, 0.00311646
976.0, 0.0115626
978.0, 0.0373879
980.0, 0.0295156
982.0, 0.063723
984.0, 0.0519242
986.0, 0.0297392
988.0, 0.0930302
990.0, 0.0661452
992.0, 0.0900993
994.0, 0.0715812
996.0, 0.0857021
998.0, 0.0875564
1000.0, 0.103659
1002.0, 0.0965458
1004.0, 0.0794164
1006.0, 0.126024
1008.0, 0.0734188
1010.0, 0.105401
1012.0, 0.131883
1014.0, 0.122303
1016.0, 0.134759
1018.0, 0.103701
1020.0, 0.166337
1022.0, 0.138146
1024.0, 0.129197
1026.0, 0.156068
1028.0, 0.143917
1030.0, 0.126828
1032.0, 0.150846
1034.0, 0.111176
1036.0, 0.187283
1038.0, 0.125903
1040.0, 0.146899
1042.0, 0.151447
1044.0, 0.116688
1046.0, 0.141009
1048.0, 0.116163
1050.0, 0.134913
1052.0, 0.0779087
1054.0, 0.107177
1056.0, 0.104464
1058.0, 0.0942446
1060.0, 0.102761
1062.0, 0.0875694
1064.0, 0.0845413
1066.0, 0.0611075
1068.0, 0.0793407
1070.0, 0.0436076
1072.0, 0.0435232
1074.0, 0.0375297
1076.0, 0.0230659
1078.0, 0.0703667
1080.0, 0.0152703
1082.0, 0.0529423
1084.0, 0.0383124
1086.0, 0.0210491
1088.0, 0.0245698
1090.0, 0.015317
1092.0, 0.00402137
1094.0, 0.0140485
1096.0, 0.0475127
1098.0, 0.021862
1100.0, 0.00433091
1102.0, 0.0111253
1104.0, 0.0247069
1106.0, 0.00994494
1108.0, 0.0168004
1110.0, 0.022813
1112.0, 0.0102804
1114.0, 0.000884204
1116.0, 0.0126919
1118.0, 0.00223607
1120.0, 0.0032948
1122.0, 0.00120346
1124.0, 0.0152009
1126.0, 0.0135302
1128.0, 0.0107675
1130.0, 0.0218812
1132.0, 0.0249557
1134.0, 0.00511691
1136.0, 0.00113072
1138.0, 0.0252429
1140.0, 0.0215789
1142.0, 0.0139092
1144.0, 0.0218305
1146.0, 0.019507
1148.0, 0.0244106
1150.0, 0.0131717
1152.0, 0.0347399
1154.0, 0.0575776
1156.0, 0.0498194
1158.0, 0.0301211
1160.0, 0.0559579
1162.0, 0.0442416
1164.0, 0.0312174
1166.0, 0.0220362
1168.0, 0.0260968
1170.0, 0.0528669
1172.0, 0.0669467
1174.0, 0.0455132
1176.0, 0.0270527
1178.0, 0.0382108
1180.0, 0.0155916
1182.0, 0.0536828
1184.0, 0.0245023
1186.0, 0.0345386
1188.0, 0.0314401
1190.0, 0.0369975
1192.0, 0.0586218
1194.0, 0.0464474
1196.0, 0.0573717
1198.0, 0.0352571
1200.0, 0.0476203
1202.0, 0.0269949
1204.0, 0.0221038
1206.0, 0.0507106
1208.0, 0.0412686
1210.0, 0.0309883
1212.0, 0.0119348
1214.0, 0.0546692
1216.0, 0.0250876
1218.0, 0.0357201
1220.0, 0.0244413
1222.0, 0.0267901
1224.0, 0.0341079
1226.0, 0.019499
1228.0, 0.0323008
1230.0, 0.0392564
1232.0, 0.0272874
1234.0, 0.0401926
1236.0, 0.0320284
1238.0, 0.0252364
1240.0, 0.0129329
1242.0, 0.0365141
1244.0, 0.021986
1246.0, 0.0174905
1248.0, 0.011223
1250.0, 0.0512981
1252.0, 0.0136268
1254.0, 0.00814736
1256.0, 0.0147642
1258.0, 0.0389231
1260.0, 0.00710041
1262.0, 0.0298905
1264.0, 0.0256683
1266.0, 0.019601
1268.0, 0.022135
1270.0, 0.018196
1272.0, 0.0189266
1274.0, 0.0464825
1276.0, 0.00739764
1278.0, 0.000272348
1280, 0.0
1282, 0.0
1284, 0.0
1286, 0.0
1288, 0.0
1290, 0.0
1292, 0.0
1294, 0.0
1296, 0.0
1298, 0.0
1300, 0.0
1302, 0.0
1304, 0.0
1306, 0.0
1308, 0.0
1310, 0.0
1312, 0.0
1314, 0.0
1316, 0.0
1318, 0.0
1320, 0.0
1322, 0.0
1324, 0.0
1326, 0.0
1328, 0.0
1330, 0.0
1332, 0.0
1334, 0.0
1336, 0.0
1338, 0.0
1340, 0.0
1342, 0.0
1344, 0.0
1346, 0.0
1348, 0.0
1350, 0.0
1352, 0.0
1354, 0.0
1356, 0.0
1358, 0.0
1360, 0.0
1362, 0.0
1364, 0.0
1366, 0.0
1368, 0.0
1370, 0.0
1372, 0.0
1374, 0.0
1376, 0.0
1378, 0.0
1380, 0.0
1382, 0.0
1384, 0.0
1386, 0.0
1388, 0.0
1390, 0.0
1392, 0.0
1394, 0.0
1396, 0.0
1398, 0.0
1400, 0.0
1402, 0.0
1404, 0.0
1406, 0.0
1408, 0.0
1410, 0.0
1412, 0.0
1414, 0.0
1416, 0.0
1418, 0.0
1420, 0.0
1422, 0.0
1424, 0.0
1426, 0.0
1428, 0.0
1430, 0.0
1432, 0.0
1434, 0.0
1436, 0.0
1438, 0.0
1440, 0.0
1442, 0.0
1444, 0.0
1446, 0.0
1448, 0.0
1450, 0.0
1452, 0.0
1454, 0.0
1456, 0.0
1458, 0.0
1460, 0.0
1462, 0.0
1464, 0.0
1466, 0.0
1468, 0.0
1470, 0.0
1472, 0.0
1474, 0.0
1476, 0.0
1478, 0.0
1480, 0.0
1482, 0.0
1484, 0.0
1486, 0.0
1488, 0.0
1490, 0.0
1492, 0.0
1494, 0.0
1496, 0.0
1498, 0.0
1500, 0.0
1502, 0.0
1504, 0.0
1506, 0.0
1508, 0.0
1510, 0.0
1512, 0.0
1514, 0.0
1516, 0.0
1518, 0.0
1520, 0.0
1522, 0.0
1524, 0.0
1526, 0.0
1528, 0.0
1530, 0.0
1532, 0.0
1534, 0.0
1536, 0.0
1538, 0.0
1540, 0.0
1542, 0.0
1544, 0.0
1546, 0.0
1548, 0.0
1550, 0.0
1552, 0.0
1554, 0.0
1556, 0.0
1558, 0.0
1560, 0.0
1562, 0.0
1564, 0.0
1566, 0.0
1568, 0.0
1570, 0.0
1572, 0.0
1574, 0.0
1576, 0.0
1578, 0.0
1580, 0.0
1582, 0.0
1584, 0.0
1586, 0.0
1588, 0.0
1590, 0.0
1592, 0.0
1594, 0.0
1596, 0.0
1598, 0.0
1599, 0.0