File: raw data/Dataset_2/Ferroedenite/Ferroedenite__R060044__Raman__532__0__unoriented__Raman_Data_Processed__26889.txt
30, 0.0
32, 0.0
34, 0.0
36, 0.0
38, 0.0
40, 0.0
42, 0.0
44, 0.0
46, 0.0
48, 0.0
50, 0.0
52, 0.0
54, 0.0
56, 0.0
58, 0.0
60, 0.0
62, 0.0
64, 0.0
66, 0.0
68, 0.0
70, 0.0
72, 0.0
74, 0.0
76, 0.0
78, 0.0
80, 0.0
82, 0.0
84, 0.0
86, 0.0
88, 0.0
90, 0.0
92, 0.0
94, 0.0
96, 0.0
98, 0.0
100, 0.0
102, 0.0
104, 0.0
106, 0.0
108, 0.0
110, 0.0
112, 0.0
114, 0.0
116, 0.0
118, 0.0
120, 0.0
122, 0.0
124, 0.0
126, 0.0
128, 0.0
130, 0.0
132, 0.0
134, 0.0
136, 0.0
138, 0.0
140, 0.0
142, 0.0
144, 0.0
146, 0.0
148, 0.0
150, 0.0
152, 0.0
154, 0.0
156, 0.0
158, 0.0
160, 0.0
162, 0.0
164, 0.0
166, 0.0
168, 0.0
170, 0.0
172, 0.0
174, 0.0
176, 0.0
178, 0.0
180, 0.0
182.0, 0.0150644
184.0, 0.00358284
186.0, 0.00333814
188.0, 0.0114354
190.0, 0.0317894
192.0, 0.0619727
194.0, 0.0891934
196.0, 0.117376
198.0, 0.155887
200.0, 0.157604
202.0, 0.241342
204.0, 0.284195
206.0, 0.297734
208.0, 0.368345
210.0, 0.372319
212.0, 0.400761
214.0, 0.418566
216.0, 0.429667
218.0, 0.454141
220.0, 0.453795
222.0, 0.473523
224.0, 0.427812
226.0, 0.382404
228.0, 0.31314
230.0, 0.264096
232.0, 0.227411
234.0, 0.154951
236.0, 0.193168
238.0, 0.142222
240.0, 0.106436
242.0, 0.0984843
244.0, 0.0800648
246.0, 0.0451836
248.0, 0.029569
250.0, 0.0308285
252.0, 0.00907772
254.0, 0.0051077
256.0, 0.015463
258.0, 0.00179182
260.0, 0.00527661
262.0, 0.00726131
264.0, 0.000260865
266.0, 0.00464708
268.0, 0.00975472
270.0, 0.0141025
272.0, 0.0227196
274.0, 0.0177387
276.0, 0.024191
278.0, 0.0444483
280.0, 0.0027338
282.0, 0.0242835
284.0, 0.0320458
286.0, 0.02219
288.0, 0.0145965
290.0, 0.0459805
292.0, 0.0414105
294.0, 0.0548719
296.0, 0.0508383
298.0, 0.0367699
300.0, 0.0476128
302.0, 0.0524157
304.0, 0.0344484
306.0, 0.057128
308.0, 0.0287087
310.0, 0.024088
312.0, 0.0661418
314.0, 0.0507397
316.0, 0.0773402
318.0, 0.0325601
320.0, 0.0598028
322.0, 0.0412109
324.0, 0.0284067
326.0, 0.040711
328.0, 0.034609
330.0, 0.0290028
332.0, 0.0515733
334.0, 0.0582537
336.0, 0.0521287
338.0, 0.0886425
340.0, 0.10766
342.0, 0.120693
344.0, 0.0890274
346.0, 0.143476
348.0, 0.16161
350.0, 0.183737
352.0, 0.192849
354.0, 0.203972
356.0, 0.170761
358.0, 0.216908
360.0, 0.208167
362.0, 0.215344
364.0, 0.189769
366.0, 0.187971
368.0, 0.156101
370.0, 0.180931
372.0, 0.156272
374.0, 0.170337
376.0, 0.131989
378.0, 0.121638
380.0, 0.0783918
382.0, 0.085011
384.0, 0.0391155
386.0, 0.0443986
388.0, 0.0676036
390.0, 0.0524381
392.0, 0.0161475
394.0, 0.0168822
396.0, 0.0157104
398.0, 0.00404092
400.0, 0.00372185
402.0, 0.00776741
404.0, 0.00790227
406.0, 0.0109447
408.0, 0.00827246
410.0, 0.0132691
412.0, 0.00276869
414.0, 0.0471432
416.0, 0.0594627
418.0, 0.0889779
420.0, 0.104074
422.0, 0.130852
424.0, 0.117903
426.0, 0.12812
428.0, 0.155205
430.0, 0.142472
432.0, 0.171877
434.0, 0.155186
436.0, 0.130896
438.0, 0.107387
440.0, 0.102419
442.0, 0.0796027
444.0, 0.0809183
446.0, 0.0704993
448.0, 0.0678652
450.0, 0.0335805
452.0, 0.0572462
454.0, 0.038037
456.0, 0.045642
458.0, 0.0173918
460.0, 0.00289289
462.0, 0.00919301
464.0, 0.00107004
466.0, 0.0022307
468.0, 0.0194297
470.0, 0.0177274
472.0, 0.0261155
474.0, 0.0183717
476.0, 0.0191947
478.0, 0.0134585
480.0, 0.0401755
482.0, 0.0622695
484.0, 0.103318
486.0, 0.0964576
488.0, 0.110961
490.0, 0.123858
492.0, 0.204991
494.0, 0.223424
496.0, 0.235944
498.0, 0.271003
500.0, 0.298421
502.0, 0.318067
504.0, 0.348908
506.0, 0.352768
508.0, 0.396661
510.0, 0.400031
512.0, 0.460764
514.0, 0.487645
516.0, 0.514236
518.0, 0.561932
520.0, 0.58421
522.0, 0.605283
524.0, 0.631189
526.0, 0.663238
528.0, 0.710808
530.0, 0.714277
532.0, 0.725445
534.0, 0.766319
536.0, 0.761365
538.0, 0.808306
540.0, 0.81692
542.0, 0.810272
544.0, 0.845001
546.0, 0.849902
548.0, 0.855594
550.0, 0.83391
552.0, 0.840185
554.0, 0.808631
556.0, 0.776872
558.0, 0.721483
560.0, 0.672977
562.0, 0.614915
564.0, 0.552131
566.0, 0.510774
568.0, 0.446161
570.0, 0.40561
572.0, 0.344409
574.0, 0.282319
576.0, 0.270257
578.0, 0.196835
580.0, 0.141272
582.0, 0.128723
584.0, 0.0819271
586.0, 0.051123
588.0, 0.0204312
590.0, 0.0100638
592.0, 0.0115407
594.0, 0.00706582
596.0, 0.00343294
598.0, 0.0179204
600.0, 0.0255965
602.0, 0.0272045
604.0, 0.024234
606.0, 0.00168981
608.0, 0.00123304
610.0, 0.00712044
612.0, 0.0125416
614.0, 0.0147715
616.0, 0.0250598
618.0, 0.0366887
620.0, 0.0388126
622.0, 0.0540177
624.0, 0.05463
626.0, 0.0841251
628.0, 0.106222
630.0, 0.131245
632.0, 0.163051
634.0, 0.1714
636.0, 0.231579
638.0, 0.244552
640.0, 0.314382
642.0, 0.350253
644.0, 0.447021
646.0, 0.487098
648.0, 0.541938
650.0, 0.634027
652.0, 0.685085
654.0, 0.778403
656.0, 0.852514
658.0, 0.950571
660.0, 0.969717
662.0, 0.970631
664.0, 0.99845
666.0, 0.931053
668.0, 0.909568
670.0, 0.786014
672.0, 0.6303
674.0, 0.529385
676.0, 0.455848
678.0, 0.377931
680.0, 0.290452
682.0, 0.215058
684.0, 0.191829
686.0, 0.149836
688.0, 0.135963
690.0, 0.148302
692.0, 0.129862
694.0, 0.173152
696.0, 0.154094
698.0, 0.193052
700.0, 0.228412
702.0, 0.241727
704.0, 0.278438
706.0, 0.324752
708.0, 0.349466
710.0, 0.355662
712.0, 0.387438
714.0, 0.402703
716.0, 0.396598
718.0, 0.362797
720.0, 0.362541
722.0, 0.368028
724.0, 0.329143
726.0, 0.32052
728.0, 0.313087
730.0, 0.271897
732.0, 0.259672
734.0, 0.219514
736.0, 0.188036
738.0, 0.164506
740.0, 0.127248
742.0, 0.10362
744.0, 0.106596
746.0, 0.0153816
748.0, 0.0187
750.0, 0.0212632
752.0, 0.00532871
754.0, 0.0161282
756.0, 0.0157096
758.0, 0.00256778
760.0, 0.0268189
762.0, 0.0024836
764.0, 0.0259145
766.0, 0.0489374
768.0, 0.0866341
770.0, 0.0912595
772.0, 0.118183
774.0, 0.133793
776.0, 0.163511
778.0, 0.188443
780.0, 0.193028
782.0, 0.223365
784.0, 0.228958
786.0, 0.216425
788.0, 0.201483
790.0, 0.167744
792.0, 0.167032
794.0, 0.183498
796.0, 0.177547
798.0, 0.148614
800.0, 0.141378
802.0, 0.140409
804.0, 0.148388
806.0, 0.114546
808.0, 0.139933
810.0, 0.12937
812.0, 0.121177
814.0, 0.131771
816.0, 0.133433
818.0, 0.1358
820.0, 0.10274
822.0, 0.112604
824.0, 0.0930595
826.0, 0.0951685
828.0, 0.0854723
830.0, 0.055411
832.0, 0.0615492
834.0, 0.0607055
836.0, 0.0489677
838.0, 0.0361267
840.0, 0.0431482
842.0, 0.00617792
844.0, 0.00214105
846.0, 0.0180729
848.0, 0.0188571
850.0, 0.00470411
852.0, 0.00705131
854.0, 0.0114096
856.0, 0.0178198
858.0, 0.0182464
860.0, 0.0120325
862.0, 0.0215256
864.0, 0.0147354
866.0, 0.0339743
868.0, 0.0252813
870.0, 0.0362476
872.0, 0.0299621
874.0, 0.0318316
876.0, 0.0508319
878.0, 0.0871445
880.0, 0.0809289
882.0, 0.107389
884.0, 0.11569
886.0, 0.126394
888.0, 0.135245
890.0, 0.151169
892.0, 0.142977
894.0, 0.159057
896.0, 0.132893
898.0, 0.145482
900.0, 0.140883
902.0, 0.139465
904.0, 0.128675
906.0, 0.0855198
908.0, 0.129624
910.0, 0.114891
912.0, 0.0961117
914.0, 0.066443
916.0, 0.0816819
918.0, 0.0655434
920.0, 0.0758679
922.0, 0.0420511
924.0, 0.0588668
926.0, 0.023487
928.0, 0.0517959
930.0, 0.0431995
932.0, 0.00616446
934.0, 0.00667154
936.0, 0.0373314
938.0, 0.0244869
940.0, 0.0269972
942.0, 0.0374501
944.0, 0.0366651
946.0, 0.0128347
948.0, 0.0316149
950.0, 0.0338849
952.0, 0.00676404
954.0, 0.0173198
956.0, 0.0243712
958.0, 0.0171624
960.0, 0.0362491
962.0, 0.00768246
964.0, 0.00205376
966.0, 0.00496987
968.0, 0.0208313
970.0, 0.00804836
972.0, 0.00341209
974.0, 0.010164
976.0, 0.0177394
978.0, 0.00310527
980.0, 0.00633422
982.0, 0.00526864
984.0, 0.0229676
986.0, 0.0304923
988.0, 0.00853541
990.0, 0.052219
992.0, 0.0394759
994.0, 0.0611555
996.0, 0.0576843
998.0, 0.0920227
1000.0, 0.0966777
1002.0, 0.105089
1004.0, 0.121116
1006.0, 0.115073
1008.0, 0.142773
1010.0, 0.161753
1012.0, 0.169362
1014.0, 0.160053
1016.0, 0.166698
1018.0, 0.181375
1020.0, 0.167219
1022.0, 0.18983
1024.0, 0.194818
1026.0, 0.218836
1028.0, 0.196633
1030.0, 0.232282
1032.0, 0.215753
1034.0, 0.193656
1036.0, 0.211914
1038.0, 0.220889
1040.0, 0.177456
1042.0, 0.208056
1044.0, 0.201141
1046.0, 0.200421
1048.0, 0.20511
1050.0, 0.209346
1052.0, 0.208857
1054.0, 0.178015
1056.0, 0.18706
1058.0, 0.183559
1060.0, 0.146053
1062.0, 0.141174
1064.0, 0.130459
1066.0, 0.12041
1068.0, 0.12776
1070.0, 0.107465
1072.0, 0.107223
1074.0, 0.103835
1076.0, 0.103836
1078.0, 0.07391
1080.0, 0.0983224
1082.0, 0.0768844
1084.0, 0.0689411
1086.0, 0.0656392
1088.0, 0.0421707
1090.0, 0.0404182
1092.0, 0.0528172
1094.0, 0.0447503
1096.0, 0.0493527
1098.0, 0.0369655
1100.0, 0.0219983
1102.0, 0.000895488
1104.0, 0.0334155
1106.0, 0.0094561
1108.0, 0.0238515
1110.0, 0.00699438
1112.0, 0.00660891
1114.0, 0.0125163
1116.0, 0.00640132
1118.0, 0.00694517
1120.0, 0.0140155
1122.0, 0.00234973
1124.0, 0.00577181
1126.0, 0.011276
1128.0, 0.00201219
1130.0, 0.00320106
1132.0, 0.00388851
1134.0, 0.00347366
1136.0, 0.00215057
1138.0, 0.00777723
1140.0, 0.00151371
1142.0, 0.0207534
1144.0, 0.0295878
1146.0, 0.0333997
1148.0, 0.020355
1150.0, 0.0389564
1152.0, 0.0237793
1154.0, 0.0381094
1156.0, 0.024431
1158.0, 0.0436908
1160.0, 0.0463319
1162.0, 0.0349175
1164.0, 0.0283326
1166.0, 0.0336182
1168.0, 0.0589696
1170.0, 0.0545809
1172.0, 0.0489124
1174.0, 0.0659571
1176.0, 0.0610591
1178.0, 0.048877
1180.0, 0.0615064
1182.0, 0.0454587
1184.0, 0.0506351
1186.0, 0.0565134
1188.0, 0.0386846
1190.0, 0.0490725
1192.0, 0.0430257
1194.0, 0.0351088
1196.0, 0.0507152
1198.0, 0.0195577
1200.0, 0.0389198
1202.0, 0.0502381
1204.0, 0.0384928
1206.0, 0.0432953
1208.0, 0.0445028
1210.0, 0.0478149
1212.0, 0.0502265
1214.0, 0.0533857
1216.0, 0.0362397
1218.0, 0.0475043
1220.0, 0.0400695
1222.0, 0.0528356
1224.0, 0.033005
1226.0, 0.0304893
1228.0, 0.042145
1230.0, 0.0473911
1232.0, 0.0420357
1234.0, 0.0434735
1236.0, 0.0236381
1238.0, 0.0377549
1240.0, 0.0227538
1242.0, 0.022515
1244.0, 0.03848
1246.0, 0.0182716
1248.0, 0.0194529
1250.0, 0.0218768
1252.0, 0.0232266
1254.0, 0.0282615
1256.0, 0.0159591
1258.0, 0.023115
1260.0, 0.0255571
1262.0, 0.017428
1264.0, 0.0210324
1266.0, 0.00283787
1268.0, 0.024742
1270.0, 0.00173896
1272.0, 0.00735665
1274.0, 0.0143665
1276.0, 0.0167043
1278.0, 0.0181235
1280.0, 0.014094
1282.0, 0.0246709
1284.0, 0.00413663
1286.0, 0.0259393
1288.0, 0.0234285
1290.0, 0.0307593
1292, 0.0
1294, 0.0
1296, 0.0
1298, 0.0
1300, 0.0
1302, 0.0
1304, 0.0
1306, 0.0
1308, 0.0
1310, 0.0
1312, 0.0
1314, 0.0
1316, 0.0
1318, 0.0
1320, 0.0
1322, 0.0
1324, 0.0
1326, 0.0
1328, 0.0
1330, 0.0
1332, 0.0
1334, 0.0
1336, 0.0
1338, 0.0
1340, 0.0
1342, 0.0
1344, 0.0
1346, 0.0
1348, 0.0
1350, 0.0
1352, 0.0
1354, 0.0
1356, 0.0
1358, 0.0
1360, 0.0
1362, 0.0
1364, 0.0
1366, 0.0
1368, 0.0
1370, 0.0
1372, 0.0
1374, 0.0
1376, 0.0
1378, 0.0
1380, 0.0
1382, 0.0
1384, 0.0
1386, 0.0
1388, 0.0
1390, 0.0
1392, 0.0
1394, 0.0
1396, 0.0
1398, 0.0
1400, 0.0
1402, 0.0
1404, 0.0
1406, 0.0
1408, 0.0
1410, 0.0
1412, 0.0
1414, 0.0
1416, 0.0
1418, 0.0
1420, 0.0
1422, 0.0
1424, 0.0
1426, 0.0
1428, 0.0
1430, 0.0
1432, 0.0
1434, 0.0
1436, 0.0
1438, 0.0
1440, 0.0
1442, 0.0
1444, 0.0
1446, 0.0
1448, 0.0
1450, 0.0
1452, 0.0
1454, 0.0
1456, 0.0
1458, 0.0
1460, 0.0
1462, 0.0
1464, 0.0
1466, 0.0
1468, 0.0
1470, 0.0
1472, 0.0
1474, 0.0
1476, 0.0
1478, 0.0
1480, 0.0
1482, 0.0
1484, 0.0
1486, 0.0
1488, 0.0
1490, 0.0
1492, 0.0
1494, 0.0
1496, 0.0
1498, 0.0
1500, 0.0
1502, 0.0
1504, 0.0
1506, 0.0
1508, 0.0
1510, 0.0
1512, 0.0
1514, 0.0
1516, 0.0
1518, 0.0
1520, 0.0
1522, 0.0
1524, 0.0
1526, 0.0
1528, 0.0
1530, 0.0
1532, 0.0
1534, 0.0
1536, 0.0
1538, 0.0
1540, 0.0
1542, 0.0
1544, 0.0
1546, 0.0
1548, 0.0
1550, 0.0
1552, 0.0
1554, 0.0
1556, 0.0
1558, 0.0
1560, 0.0
1562, 0.0
1564, 0.0
1566, 0.0
1568, 0.0
1570, 0.0
1572, 0.0
1574, 0.0
1576, 0.0
1578, 0.0
1580, 0.0
1582, 0.0
1584, 0.0
1586, 0.0
1588, 0.0
1590, 0.0
1592, 0.0
1594, 0.0
1596, 0.0
1598, 0.0
1599, 0.0