File: raw data/Dataset_2/GlassCe/GlassCe__R110075__Raman__532__0__unoriented__Raman_Data_Processed__35483.txt
30, 0.0
32, 0.0
34, 0.0
36, 0.0
38, 0.0
40, 0.0
42, 0.0
44, 0.0
46, 0.0
48, 0.0
50, 0.0
52, 0.0
54, 0.0
56, 0.0
58, 0.0
60, 0.0
62, 0.0
64, 0.0
66, 0.0
68, 0.0
70, 0.0
72, 0.0
74, 0.0
76, 0.0
78, 0.0
80, 0.0
82, 0.0
84, 0.0
86, 0.0
88, 0.0
90, 0.0
92, 0.0
94, 0.0
96, 0.0
98, 0.0
100, 0.0
102, 0.0
104, 0.0
106, 0.0
108, 0.0
110, 0.0
112, 0.0
114, 0.0
116, 0.0
118, 0.0
120, 0.0
122, 0.0
124, 0.0
126, 0.0
128, 0.0
130, 0.0
132, 0.0
134, 0.0
136, 0.0
138, 0.0
140, 0.0
142, 0.0
144, 0.0
146, 0.0
148, 0.0
150, 0.0
152, 0.0
154, 0.0
156, 0.0
158, 0.0
160, 0.0
162, 0.0
164, 0.0
166, 0.0
168, 0.0
170, 0.0
172, 0.0
174, 0.0
176, 0.0
178, 0.0
180, 0.0
182, 0.0
184, 0.0
186, 0.0
188, 0.0
190, 0.0
192, 0.0
194, 0.0
196, 0.0
198, 0.0
200.0, 0.963008
202.0, 0.960993
204.0, 0.976873
206.0, 0.977846
208.0, 0.977485
210.0, 0.984625
212.0, 0.960179
214.0, 0.959894
216.0, 0.958901
218.0, 0.952536
220.0, 0.9667
222.0, 0.969486
224.0, 0.962577
226.0, 0.95423
228.0, 0.954857
230.0, 0.939398
232.0, 0.945738
234.0, 0.931964
236.0, 0.938301
238.0, 0.934164
240.0, 0.926796
242.0, 0.927414
244.0, 0.933334
246.0, 0.93288
248.0, 0.943864
250.0, 0.925975
252.0, 0.92222
254.0, 0.924198
256.0, 0.926227
258.0, 0.936559
260.0, 0.914137
262.0, 0.920514
264.0, 0.904771
266.0, 0.914175
268.0, 0.917557
270.0, 0.920612
272.0, 0.915227
274.0, 0.90932
276.0, 0.931048
278.0, 0.913095
280.0, 0.916345
282.0, 0.902716
284.0, 0.903138
286.0, 0.910932
288.0, 0.912832
290.0, 0.910168
292.0, 0.905032
294.0, 0.918787
296.0, 0.920897
298.0, 0.9145
300.0, 0.920262
302.0, 0.931283
304.0, 0.934753
306.0, 0.931086
308.0, 0.923281
310.0, 0.935624
312.0, 0.930625
314.0, 0.945969
316.0, 0.935624
318.0, 0.943824
320.0, 0.935255
322.0, 0.946628
324.0, 0.954471
326.0, 0.930653
328.0, 0.946115
330.0, 0.948472
332.0, 0.941581
334.0, 0.95499
336.0, 0.947101
338.0, 0.954313
340.0, 0.960462
342.0, 0.955903
344.0, 0.960642
346.0, 0.966239
348.0, 0.962278
350.0, 0.967863
352.0, 0.971922
354.0, 0.9607
356.0, 0.972306
358.0, 0.969108
360.0, 0.975878
362.0, 0.963658
364.0, 0.979219
366.0, 0.972693
368.0, 0.960248
370.0, 0.965427
372.0, 0.97708
374.0, 0.966006
376.0, 0.970219
378.0, 0.973871
380.0, 0.967366
382.0, 0.97747
384.0, 0.975956
386.0, 0.974451
388.0, 0.969509
390.0, 0.983307
392.0, 0.967487
394.0, 0.970394
396.0, 0.976888
398.0, 0.96329
400.0, 0.968531
402.0, 0.969838
404.0, 0.975352
406.0, 0.973402
408.0, 0.97768
410.0, 0.979632
412.0, 0.983621
414.0, 0.986137
416.0, 0.980154
418.0, 0.978879
420.0, 0.971761
422.0, 0.96908
424.0, 0.983128
426.0, 0.974679
428.0, 0.992198
430.0, 0.977897
432.0, 0.986687
434.0, 0.981502
436.0, 0.984465
438.0, 0.983074
440.0, 0.99016
442.0, 0.9866
444.0, 0.997959
446.0, 0.984302
448.0, 0.991597
450.0, 0.991441
452.0, 0.984205
454.0, 0.990548
456.0, 0.986219
458.0, 0.989525
460.0, 0.988169
462.0, 0.983058
464.0, 0.975217
466.0, 0.981146
468.0, 0.976672
470.0, 0.97635
472.0, 0.975376
474.0, 0.95972
476.0, 0.961688
478.0, 0.962108
480.0, 0.965777
482.0, 0.950476
484.0, 0.963065
486.0, 0.957439
488.0, 0.953742
490.0, 0.955398
492.0, 0.941853
494.0, 0.955366
496.0, 0.953275
498.0, 0.933765
500.0, 0.942212
502.0, 0.924338
504.0, 0.934928
506.0, 0.924634
508.0, 0.926075
510.0, 0.913883
512.0, 0.90766
514.0, 0.893054
516.0, 0.891737
518.0, 0.888861
520.0, 0.866751
522.0, 0.85396
524.0, 0.853422
526.0, 0.851251
528.0, 0.850536
530.0, 0.829203
532.0, 0.815778
534.0, 0.806065
536.0, 0.799815
538.0, 0.788018
540.0, 0.780463
542.0, 0.773878
544.0, 0.764526
546.0, 0.763906
548.0, 0.734466
550.0, 0.739121
552.0, 0.72794
554.0, 0.721944
556.0, 0.714297
558.0, 0.707704
560.0, 0.698937
562.0, 0.708574
564.0, 0.692945
566.0, 0.693908
568.0, 0.685797
570.0, 0.672873
572.0, 0.672688
574.0, 0.667559
576.0, 0.662428
578.0, 0.652214
580.0, 0.662594
582.0, 0.641003
584.0, 0.640732
586.0, 0.636969
588.0, 0.617117
590.0, 0.612669
592.0, 0.621898
594.0, 0.609385
596.0, 0.600358
598.0, 0.589553
600.0, 0.583833
602.0, 0.574972
604.0, 0.572357
606.0, 0.557116
608.0, 0.558774
610.0, 0.552545
612.0, 0.540874
614.0, 0.538744
616.0, 0.532009
618.0, 0.521669
620.0, 0.519438
622.0, 0.507634
624.0, 0.498955
626.0, 0.500239
628.0, 0.497874
630.0, 0.486511
632.0, 0.479032
634.0, 0.48702
636.0, 0.48229
638.0, 0.479631
640.0, 0.474752
642.0, 0.465303
644.0, 0.456787
646.0, 0.457907
648.0, 0.456138
650.0, 0.446657
652.0, 0.436463
654.0, 0.44377
656.0, 0.435621
658.0, 0.427937
660.0, 0.427515
662.0, 0.42844
664.0, 0.411664
666.0, 0.413866
668.0, 0.405959
670.0, 0.393901
672.0, 0.388705
674.0, 0.394547
676.0, 0.380512
678.0, 0.378858
680.0, 0.369129
682.0, 0.363834
684.0, 0.361369
686.0, 0.357913
688.0, 0.345512
690.0, 0.350329
692.0, 0.326282
694.0, 0.333387
696.0, 0.327948
698.0, 0.333707
700.0, 0.317835
702.0, 0.312798
704.0, 0.305142
706.0, 0.29635
708.0, 0.305079
710.0, 0.299219
712.0, 0.283352
714.0, 0.282362
716.0, 0.291738
718.0, 0.283481
720.0, 0.273938
722.0, 0.278913
724.0, 0.270022
726.0, 0.268007
728.0, 0.269043
730.0, 0.265218
732.0, 0.263816
734.0, 0.251385
736.0, 0.256058
738.0, 0.255177
740.0, 0.253689
742.0, 0.240317
744.0, 0.243471
746.0, 0.240166
748.0, 0.236308
750.0, 0.227947
752.0, 0.22511
754.0, 0.226186
756.0, 0.231202
758.0, 0.227909
760.0, 0.222735
762.0, 0.222546
764.0, 0.219139
766.0, 0.216591
768.0, 0.214282
770.0, 0.210761
772.0, 0.210121
774.0, 0.211249
776.0, 0.216788
778.0, 0.204635
780.0, 0.204735
782.0, 0.191156
784.0, 0.196553
786.0, 0.194108
788.0, 0.197461
790.0, 0.193674
792.0, 0.18017
794.0, 0.188315
796.0, 0.184382
798.0, 0.1743
800.0, 0.17135
802.0, 0.173535
804.0, 0.168364
806.0, 0.16634
808.0, 0.160306
810.0, 0.159117
812.0, 0.160963
814.0, 0.150254
816.0, 0.159316
818.0, 0.148553
820.0, 0.147035
822.0, 0.146413
824.0, 0.149769
826.0, 0.129757
828.0, 0.137818
830.0, 0.13124
832.0, 0.142081
834.0, 0.139051
836.0, 0.142972
838.0, 0.132411
840.0, 0.137107
842.0, 0.143089
844.0, 0.144471
846.0, 0.156774
848.0, 0.144602
850.0, 0.153428
852.0, 0.161312
854.0, 0.174837
856.0, 0.178448
858.0, 0.183979
860.0, 0.180728
862.0, 0.19459
864.0, 0.204252
866.0, 0.212481
868.0, 0.212028
870.0, 0.225834
872.0, 0.229968
874.0, 0.239764
876.0, 0.253534
878.0, 0.252787
880.0, 0.269115
882.0, 0.270718
884.0, 0.280663
886.0, 0.295499
888.0, 0.297686
890.0, 0.311172
892.0, 0.309843
894.0, 0.331119
896.0, 0.337584
898.0, 0.34202
900.0, 0.353718
902.0, 0.360779
904.0, 0.383958
906.0, 0.390862
908.0, 0.395173
910.0, 0.40443
912.0, 0.409486
914.0, 0.415633
916.0, 0.437142
918.0, 0.437436
920.0, 0.445086
922.0, 0.456347
924.0, 0.46597
926.0, 0.470977
928.0, 0.477063
930.0, 0.489616
932.0, 0.491729
934.0, 0.496604
936.0, 0.499494
938.0, 0.503457
940.0, 0.511013
942.0, 0.512008
944.0, 0.519661
946.0, 0.536583
948.0, 0.533938
950.0, 0.545816
952.0, 0.549689
954.0, 0.556277
956.0, 0.571554
958.0, 0.56985
960.0, 0.584394
962.0, 0.582258
964.0, 0.584896
966.0, 0.607455
968.0, 0.612182
970.0, 0.605661
972.0, 0.615659
974.0, 0.61436
976.0, 0.630155
978.0, 0.627671
980.0, 0.632906
982.0, 0.645374
984.0, 0.646141
986.0, 0.64953
988.0, 0.665452
990.0, 0.664452
992.0, 0.670018
994.0, 0.673038
996.0, 0.676657
998.0, 0.684018
1000.0, 0.692104
1002.0, 0.689634
1004.0, 0.706456
1006.0, 0.702503
1008.0, 0.70629
1010.0, 0.706999
1012.0, 0.701112
1014.0, 0.714685
1016.0, 0.706141
1018.0, 0.706973
1020.0, 0.712772
1022.0, 0.725547
1024.0, 0.713765
1026.0, 0.704817
1028.0, 0.709978
1030.0, 0.703505
1032.0, 0.701
1034.0, 0.711163
1036.0, 0.702804
1038.0, 0.682663
1040.0, 0.681271
1042.0, 0.675159
1044.0, 0.661242
1046.0, 0.65468
1048.0, 0.646495
1050.0, 0.642832
1052.0, 0.634409
1054.0, 0.621108
1056.0, 0.609902
1058.0, 0.602077
1060.0, 0.580251
1062.0, 0.569498
1064.0, 0.561083
1066.0, 0.536057
1068.0, 0.523575
1070.0, 0.511409
1072.0, 0.50398
1074.0, 0.479167
1076.0, 0.467399
1078.0, 0.458545
1080.0, 0.445076
1082.0, 0.436811
1084.0, 0.421392
1086.0, 0.407502
1088.0, 0.388633
1090.0, 0.373049
1092.0, 0.369709
1094.0, 0.354437
1096.0, 0.341494
1098.0, 0.337706
1100.0, 0.328658
1102.0, 0.30587
1104.0, 0.294565
1106.0, 0.289512
1108.0, 0.27921
1110.0, 0.274737
1112.0, 0.252956
1114.0, 0.250441
1116.0, 0.245294
1118.0, 0.23597
1120.0, 0.231801
1122.0, 0.221224
1124.0, 0.21046
1126.0, 0.202732
1128.0, 0.198358
1130.0, 0.186623
1132.0, 0.178896
1134.0, 0.172396
1136.0, 0.171635
1138.0, 0.171251
1140.0, 0.160875
1142.0, 0.161383
1144.0, 0.149169
1146.0, 0.144973
1148.0, 0.147701
1150.0, 0.135795
1152.0, 0.129128
1154.0, 0.126664
1156.0, 0.121308
1158.0, 0.114494
1160.0, 0.113768
1162.0, 0.113004
1164.0, 0.100642
1166.0, 0.100294
1168.0, 0.0942326
1170.0, 0.0954394
1172.0, 0.0897749
1174.0, 0.0972174
1176.0, 0.0892133
1178.0, 0.0805189
1180.0, 0.0842926
1182.0, 0.0736741
1184.0, 0.0731446
1186.0, 0.0793135
1188.0, 0.0721381
1190.0, 0.068447
1192.0, 0.0630378
1194.0, 0.0548165
1196.0, 0.0576404
1198.0, 0.0632334
1200.0, 0.0576813
1202.0, 0.0457023
1204.0, 0.0548122
1206.0, 0.051784
1208.0, 0.0496773
1210.0, 0.0425044
1212.0, 0.0433282
1214.0, 0.0414032
1216.0, 0.0378592
1218.0, 0.0395657
1220.0, 0.0392864
1222.0, 0.0344373
1224.0, 0.0431904
1226.0, 0.027977
1228.0, 0.0318843
1230.0, 0.0319791
1232.0, 0.0253593
1234.0, 0.0287879
1236.0, 0.0321235
1238.0, 0.0219286
1240.0, 0.0309099
1242.0, 0.0195127
1244.0, 0.0235296
1246.0, 0.0321177
1248.0, 0.02543
1250.0, 0.0211337
1252.0, 0.0270356
1254.0, 0.0186388
1256.0, 0.0224506
1258.0, 0.0195608
1260.0, 0.0265419
1262.0, 0.0235571
1264.0, 0.0168456
1266.0, 0.0235141
1268.0, 0.0241541
1270.0, 0.0196018
1272.0, 0.0198898
1274.0, 0.0220591
1276.0, 0.0105961
1278.0, 0.0248482
1280.0, 0.0160663
1282.0, 0.0147736
1284.0, 0.0163796
1286.0, 0.0163121
1288.0, 0.0227178
1290.0, 0.0134506
1292.0, 0.0197179
1294.0, 0.00692396
1296.0, 0.00871434
1298.0, 0.00949822
1300.0, 0.0124626
1302.0, 0.00384384
1304, 0.0
1306, 0.0
1308, 0.0
1310, 0.0
1312, 0.0
1314, 0.0
1316, 0.0
1318, 0.0
1320, 0.0
1322, 0.0
1324, 0.0
1326, 0.0
1328, 0.0
1330, 0.0
1332, 0.0
1334, 0.0
1336, 0.0
1338, 0.0
1340, 0.0
1342, 0.0
1344, 0.0
1346, 0.0
1348, 0.0
1350, 0.0
1352, 0.0
1354, 0.0
1356, 0.0
1358, 0.0
1360, 0.0
1362, 0.0
1364, 0.0
1366, 0.0
1368, 0.0
1370, 0.0
1372, 0.0
1374, 0.0
1376, 0.0
1378, 0.0
1380, 0.0
1382, 0.0
1384, 0.0
1386, 0.0
1388, 0.0
1390, 0.0
1392, 0.0
1394, 0.0
1396, 0.0
1398, 0.0
1400, 0.0
1402, 0.0
1404, 0.0
1406, 0.0
1408, 0.0
1410, 0.0
1412, 0.0
1414, 0.0
1416, 0.0
1418, 0.0
1420, 0.0
1422, 0.0
1424, 0.0
1426, 0.0
1428, 0.0
1430, 0.0
1432, 0.0
1434, 0.0
1436, 0.0
1438, 0.0
1440, 0.0
1442, 0.0
1444, 0.0
1446, 0.0
1448, 0.0
1450, 0.0
1452, 0.0
1454, 0.0
1456, 0.0
1458, 0.0
1460, 0.0
1462, 0.0
1464, 0.0
1466, 0.0
1468, 0.0
1470, 0.0
1472, 0.0
1474, 0.0
1476, 0.0
1478, 0.0
1480, 0.0
1482, 0.0
1484, 0.0
1486, 0.0
1488, 0.0
1490, 0.0
1492, 0.0
1494, 0.0
1496, 0.0
1498, 0.0
1500, 0.0
1502, 0.0
1504, 0.0
1506, 0.0
1508, 0.0
1510, 0.0
1512, 0.0
1514, 0.0
1516, 0.0
1518, 0.0
1520, 0.0
1522, 0.0
1524, 0.0
1526, 0.0
1528, 0.0
1530, 0.0
1532, 0.0
1534, 0.0
1536, 0.0
1538, 0.0
1540, 0.0
1542, 0.0
1544, 0.0
1546, 0.0
1548, 0.0
1550, 0.0
1552, 0.0
1554, 0.0
1556, 0.0
1558, 0.0
1560, 0.0
1562, 0.0
1564, 0.0
1566, 0.0
1568, 0.0
1570, 0.0
1572, 0.0
1574, 0.0
1576, 0.0
1578, 0.0
1580, 0.0
1582, 0.0
1584, 0.0
1586, 0.0
1588, 0.0
1590, 0.0
1592, 0.0
1594, 0.0
1596, 0.0
1598, 0.0
1599, 0.0