File: raw data/Dataset_2/GlassCe/GlassCe__R110075__Raman__780__0__unoriented__Raman_Data_Processed__35484.txt
30, 0.0
32, 0.0
34, 0.0
36, 0.0
38, 0.0
40, 0.0
42, 0.0
44, 0.0
46, 0.0
48, 0.0
50, 0.0
52, 0.0
54, 0.0
56, 0.0
58, 0.0
60, 0.0
62, 0.0
64, 0.0
66, 0.0
68, 0.0
70, 0.0
72, 0.0
74, 0.0
76, 0.0
78, 0.0
80, 0.0
82, 0.0
84, 0.0
86, 0.0
88, 0.0
90, 0.0
92, 0.0
94, 0.0
96, 0.0
98, 0.0
100, 0.0
102, 0.0
104, 0.0
106, 0.0
108, 0.0
110, 0.0
112, 0.0
114, 0.0
116, 0.0
118, 0.0
120, 0.0
122, 0.0
124, 0.0
126, 0.0
128, 0.0
130, 0.0
132, 0.0
134, 0.0
136, 0.0
138, 0.0
140, 0.0
142, 0.0
144, 0.0
146, 0.0
148.0, 0.0476758
150.0, 0.0482568
152.0, 0.0487288
154.0, 0.0492531
156.0, 0.0496927
158.0, 0.0511197
160.0, 0.0500898
162.0, 0.0511824
164.0, 0.0500185
166.0, 0.0508715
168.0, 0.0509105
170.0, 0.0520028
172.0, 0.0518292
174.0, 0.0518712
176.0, 0.0524214
178.0, 0.0531687
180.0, 0.0545344
182.0, 0.0529218
184.0, 0.0533138
186.0, 0.0538355
188.0, 0.0555905
190.0, 0.0548108
192.0, 0.057105
194.0, 0.0588115
196.0, 0.0575416
198.0, 0.0593456
200.0, 0.0594158
202.0, 0.0602828
204.0, 0.0597085
206.0, 0.0603246
208.0, 0.0620027
210.0, 0.0631829
212.0, 0.0629631
214.0, 0.0641242
216.0, 0.0651706
218.0, 0.0672367
220.0, 0.0675846
222.0, 0.0692481
224.0, 0.0704741
226.0, 0.0694259
228.0, 0.0701098
230.0, 0.0713072
232.0, 0.0704265
234.0, 0.0730481
236.0, 0.0726618
238.0, 0.0740166
240.0, 0.0734644
242.0, 0.0761631
244.0, 0.0763549
246.0, 0.0768721
248.0, 0.0778689
250.0, 0.0790972
252.0, 0.0793278
254.0, 0.0796381
256.0, 0.0799049
258.0, 0.0814635
260.0, 0.0829201
262.0, 0.0839227
264.0, 0.0839213
266.0, 0.0852855
268.0, 0.084882
270.0, 0.0880299
272.0, 0.0879693
274.0, 0.0886244
276.0, 0.0893875
278.0, 0.0900006
280.0, 0.0910571
282.0, 0.0916019
284.0, 0.0915636
286.0, 0.0932432
288.0, 0.0943127
290.0, 0.0952495
292.0, 0.0952022
294.0, 0.0973027
296.0, 0.0973839
298.0, 0.0993013
300.0, 0.0989486
302.0, 0.100698
304.0, 0.101074
306.0, 0.102625
308.0, 0.103035
310.0, 0.10648
312.0, 0.106028
314.0, 0.107236
316.0, 0.10827
318.0, 0.107102
320.0, 0.109995
322.0, 0.110103
324.0, 0.113333
326.0, 0.113225
328.0, 0.115923
330.0, 0.115965
332.0, 0.119481
334.0, 0.118735
336.0, 0.122548
338.0, 0.123176
340.0, 0.125794
342.0, 0.127548
344.0, 0.130002
346.0, 0.132435
348.0, 0.135898
350.0, 0.137851
352.0, 0.141754
354.0, 0.143285
356.0, 0.147492
358.0, 0.149922
360.0, 0.151538
362.0, 0.155069
364.0, 0.159545
366.0, 0.162992
368.0, 0.165541
370.0, 0.169969
372.0, 0.173204
374.0, 0.177392
376.0, 0.180252
378.0, 0.184108
380.0, 0.187846
382.0, 0.191482
384.0, 0.195733
386.0, 0.200132
388.0, 0.201982
390.0, 0.20705
392.0, 0.210991
394.0, 0.213645
396.0, 0.215791
398.0, 0.219365
400.0, 0.221947
402.0, 0.224834
404.0, 0.227587
406.0, 0.228593
408.0, 0.232512
410.0, 0.233679
412.0, 0.237238
414.0, 0.238765
416.0, 0.238425
418.0, 0.238459
420.0, 0.241889
422.0, 0.242516
424.0, 0.242023
426.0, 0.244196
428.0, 0.243821
430.0, 0.243857
432.0, 0.243521
434.0, 0.241906
436.0, 0.241364
438.0, 0.241572
440.0, 0.240456
442.0, 0.239714
444.0, 0.238981
446.0, 0.236036
448.0, 0.237453
450.0, 0.233894
452.0, 0.231938
454.0, 0.229734
456.0, 0.230513
458.0, 0.226865
460.0, 0.225382
462.0, 0.223517
464.0, 0.220807
466.0, 0.218335
468.0, 0.218187
470.0, 0.216255
472.0, 0.214377
474.0, 0.212413
476.0, 0.209442
478.0, 0.206168
480.0, 0.205197
482.0, 0.203654
484.0, 0.202014
486.0, 0.20034
488.0, 0.199913
490.0, 0.197771
492.0, 0.195411
494.0, 0.194763
496.0, 0.193712
498.0, 0.191512
500.0, 0.191476
502.0, 0.189504
504.0, 0.187248
506.0, 0.186047
508.0, 0.185946
510.0, 0.183706
512.0, 0.182621
514.0, 0.180531
516.0, 0.180316
518.0, 0.179177
520.0, 0.175073
522.0, 0.171716
524.0, 0.171663
526.0, 0.169932
528.0, 0.169513
530.0, 0.165912
532.0, 0.163938
534.0, 0.162376
536.0, 0.160787
538.0, 0.158477
540.0, 0.158371
542.0, 0.15537
544.0, 0.154396
546.0, 0.15191
548.0, 0.150198
550.0, 0.148487
552.0, 0.147452
554.0, 0.146896
556.0, 0.144726
558.0, 0.142873
560.0, 0.141671
562.0, 0.140112
564.0, 0.139452
566.0, 0.138927
568.0, 0.138214
570.0, 0.137707
572.0, 0.138077
574.0, 0.134791
576.0, 0.131459
578.0, 0.131346
580.0, 0.129203
582.0, 0.128378
584.0, 0.126523
586.0, 0.124456
588.0, 0.123346
590.0, 0.121622
592.0, 0.12192
594.0, 0.121883
596.0, 0.120696
598.0, 0.118102
600.0, 0.115386
602.0, 0.113815
604.0, 0.113491
606.0, 0.11247
608.0, 0.109551
610.0, 0.109643
612.0, 0.108056
614.0, 0.107536
616.0, 0.105269
618.0, 0.102553
620.0, 0.103384
622.0, 0.0998953
624.0, 0.100079
626.0, 0.0994032
628.0, 0.0986266
630.0, 0.097629
632.0, 0.0968101
634.0, 0.0964636
636.0, 0.0956549
638.0, 0.0925999
640.0, 0.0931474
642.0, 0.0895836
644.0, 0.090984
646.0, 0.0891475
648.0, 0.0897358
650.0, 0.0857868
652.0, 0.0850876
654.0, 0.0854603
656.0, 0.0822935
658.0, 0.0822745
660.0, 0.0815134
662.0, 0.0788579
664.0, 0.0777797
666.0, 0.0766759
668.0, 0.0753697
670.0, 0.0736261
672.0, 0.0728993
674.0, 0.0713177
676.0, 0.0710495
678.0, 0.0694913
680.0, 0.0676923
682.0, 0.0664095
684.0, 0.0653019
686.0, 0.0647839
688.0, 0.0645817
690.0, 0.0617328
692.0, 0.0611643
694.0, 0.0593002
696.0, 0.0597228
698.0, 0.0570851
700.0, 0.0560105
702.0, 0.054105
704.0, 0.0563888
706.0, 0.0540192
708.0, 0.0530987
710.0, 0.0497828
712.0, 0.0508486
714.0, 0.0507211
716.0, 0.0479274
718.0, 0.0489019
720.0, 0.0473152
722.0, 0.047011
724.0, 0.0447498
726.0, 0.0440716
728.0, 0.0444467
730.0, 0.0419576
732.0, 0.0422639
734.0, 0.0419849
736.0, 0.0398986
738.0, 0.0398447
740.0, 0.0379973
742.0, 0.0368266
744.0, 0.0373143
746.0, 0.0360009
748.0, 0.0343715
750.0, 0.0347346
752.0, 0.0342216
754.0, 0.0323847
756.0, 0.0324235
758.0, 0.03181
760.0, 0.0311095
762.0, 0.0302412
764.0, 0.0290985
766.0, 0.0278728
768.0, 0.0276068
770.0, 0.0258907
772.0, 0.0270552
774.0, 0.0256005
776.0, 0.0256946
778.0, 0.0243916
780.0, 0.0237782
782.0, 0.0231949
784.0, 0.0215263
786.0, 0.0212945
788.0, 0.0194547
790.0, 0.0222514
792.0, 0.0193514
794.0, 0.0184067
796.0, 0.0175582
798.0, 0.0168664
800.0, 0.0164858
802.0, 0.0142053
804.0, 0.0126637
806.0, 0.0139457
808.0, 0.0126511
810.0, 0.0114986
812.0, 0.00988527
814.0, 0.00947414
816.0, 0.00912763
818.0, 0.00847321
820.0, 0.00719806
822.0, 0.0057698
824.0, 0.00586704
826.0, 0.00446828
828.0, 0.00547454
830.0, 0.00341097
832.0, 0.00411326
834.0, 0.00186133
836.0, 0.00365538
838.0, 0.00178555
840.0, 0.00253715
842.0, 0.0012722
844.0, 0.00206811
846.0, 2.19157e-05
848.0, 0.00156073
850.0, 0.00153376
852.0, 0.00164576
854.0, 0.00054846
856.0, 0.00128103
858.0, 0.00193051
860.0, 0.00269372
862.0, 0.00269853
864.0, 0.00182426
866.0, 0.00205557
868.0, 0.00273851
870.0, 0.00320949
872.0, 0.00328808
874.0, 0.00355911
876.0, 0.00394073
878.0, 0.00426187
880.0, 0.0045127
882.0, 0.00476543
884.0, 0.00610608
886.0, 0.00622966
888.0, 0.00734138
890.0, 0.00678571
892.0, 0.00773443
894.0, 0.00918117
896.0, 0.00914373
898.0, 0.00981089
900.0, 0.0105463
902.0, 0.00983966
904.0, 0.0109734
906.0, 0.0117645
908.0, 0.012101
910.0, 0.01348
912.0, 0.0144712
914.0, 0.0147034
916.0, 0.0143793
918.0, 0.0170731
920.0, 0.0167393
922.0, 0.0183789
924.0, 0.0181783
926.0, 0.0187496
928.0, 0.0184097
930.0, 0.0207314
932.0, 0.0211842
934.0, 0.020986
936.0, 0.0203881
938.0, 0.0225831
940.0, 0.0237981
942.0, 0.0241856
944.0, 0.0254562
946.0, 0.0237267
948.0, 0.0246699
950.0, 0.0261936
952.0, 0.0272581
954.0, 0.0270689
956.0, 0.0272073
958.0, 0.0293125
960.0, 0.0289821
962.0, 0.0289536
964.0, 0.0300326
966.0, 0.0302141
968.0, 0.0319254
970.0, 0.0320159
972.0, 0.0323407
974.0, 0.0339323
976.0, 0.0334834
978.0, 0.0338214
980.0, 0.0357254
982.0, 0.0373869
984.0, 0.0382144
986.0, 0.0372172
988.0, 0.0402153
990.0, 0.0398996
992.0, 0.0412535
994.0, 0.0423783
996.0, 0.0423348
998.0, 0.0437491
1000.0, 0.0447962
1002.0, 0.0456454
1004.0, 0.0459558
1006.0, 0.0477098
1008.0, 0.0479425
1010.0, 0.0520809
1012.0, 0.0501958
1014.0, 0.0526144
1016.0, 0.0521721
1018.0, 0.0534664
1020.0, 0.0550625
1022.0, 0.0563385
1024.0, 0.0586374
1026.0, 0.0597485
1028.0, 0.0603677
1030.0, 0.062921
1032.0, 0.0627115
1034.0, 0.0636738
1036.0, 0.0656369
1038.0, 0.0667055
1040.0, 0.0681952
1042.0, 0.0695239
1044.0, 0.0711106
1046.0, 0.0723008
1048.0, 0.0721619
1050.0, 0.0755917
1052.0, 0.0766247
1054.0, 0.0788367
1056.0, 0.0804615
1058.0, 0.0818098
1060.0, 0.0830679
1062.0, 0.0865218
1064.0, 0.0874219
1066.0, 0.0905234
1068.0, 0.0927032
1070.0, 0.0946874
1072.0, 0.0974925
1074.0, 0.0993784
1076.0, 0.103536
1078.0, 0.105396
1080.0, 0.109644
1082.0, 0.111854
1084.0, 0.115879
1086.0, 0.120402
1088.0, 0.124478
1090.0, 0.127934
1092.0, 0.132267
1094.0, 0.137394
1096.0, 0.14144
1098.0, 0.144562
1100.0, 0.150549
1102.0, 0.154287
1104.0, 0.160535
1106.0, 0.165632
1108.0, 0.173804
1110.0, 0.176478
1112.0, 0.182105
1114.0, 0.188366
1116.0, 0.195451
1118.0, 0.20133
1120.0, 0.207515
1122.0, 0.215348
1124.0, 0.223412
1126.0, 0.229788
1128.0, 0.238631
1130.0, 0.247201
1132.0, 0.255492
1134.0, 0.263253
1136.0, 0.274926
1138.0, 0.281104
1140.0, 0.291416
1142.0, 0.299396
1144.0, 0.309735
1146.0, 0.319475
1148.0, 0.329549
1150.0, 0.339787
1152.0, 0.347616
1154.0, 0.359118
1156.0, 0.370105
1158.0, 0.382035
1160.0, 0.393063
1162.0, 0.402434
1164.0, 0.413617
1166.0, 0.425447
1168.0, 0.438933
1170.0, 0.449279
1172.0, 0.461478
1174.0, 0.475642
1176.0, 0.48578
1178.0, 0.496548
1180.0, 0.509451
1182.0, 0.52113
1184.0, 0.533879
1186.0, 0.543129
1188.0, 0.558262
1190.0, 0.570679
1192.0, 0.581089
1194.0, 0.592633
1196.0, 0.604458
1198.0, 0.616878
1200.0, 0.626925
1202.0, 0.640515
1204.0, 0.648987
1206.0, 0.662797
1208.0, 0.673072
1210.0, 0.682568
1212.0, 0.695511
1214.0, 0.708775
1216.0, 0.719787
1218.0, 0.72918
1220.0, 0.737506
1222.0, 0.747453
1224.0, 0.755359
1226.0, 0.765353
1228.0, 0.776987
1230.0, 0.7861
1232.0, 0.793288
1234.0, 0.803102
1236.0, 0.809448
1238.0, 0.818314
1240.0, 0.825777
1242.0, 0.83203
1244.0, 0.839885
1246.0, 0.848094
1248.0, 0.855975
1250.0, 0.862453
1252.0, 0.868597
1254.0, 0.875513
1256.0, 0.884185
1258.0, 0.890873
1260.0, 0.898348
1262.0, 0.9053
1264.0, 0.912741
1266.0, 0.918036
1268.0, 0.926072
1270.0, 0.938642
1272.0, 0.9418
1274.0, 0.950302
1276.0, 0.957027
1278.0, 0.967476
1280.0, 0.975473
1282.0, 0.986161
1284.0, 0.995398
1286, 0.0
1288, 0.0
1290, 0.0
1292, 0.0
1294, 0.0
1296, 0.0
1298, 0.0
1300, 0.0
1302, 0.0
1304, 0.0
1306, 0.0
1308, 0.0
1310, 0.0
1312, 0.0
1314, 0.0
1316, 0.0
1318, 0.0
1320, 0.0
1322, 0.0
1324, 0.0
1326, 0.0
1328, 0.0
1330, 0.0
1332, 0.0
1334, 0.0
1336, 0.0
1338, 0.0
1340, 0.0
1342, 0.0
1344, 0.0
1346, 0.0
1348, 0.0
1350, 0.0
1352, 0.0
1354, 0.0
1356, 0.0
1358, 0.0
1360, 0.0
1362, 0.0
1364, 0.0
1366, 0.0
1368, 0.0
1370, 0.0
1372, 0.0
1374, 0.0
1376, 0.0
1378, 0.0
1380, 0.0
1382, 0.0
1384, 0.0
1386, 0.0
1388, 0.0
1390, 0.0
1392, 0.0
1394, 0.0
1396, 0.0
1398, 0.0
1400, 0.0
1402, 0.0
1404, 0.0
1406, 0.0
1408, 0.0
1410, 0.0
1412, 0.0
1414, 0.0
1416, 0.0
1418, 0.0
1420, 0.0
1422, 0.0
1424, 0.0
1426, 0.0
1428, 0.0
1430, 0.0
1432, 0.0
1434, 0.0
1436, 0.0
1438, 0.0
1440, 0.0
1442, 0.0
1444, 0.0
1446, 0.0
1448, 0.0
1450, 0.0
1452, 0.0
1454, 0.0
1456, 0.0
1458, 0.0
1460, 0.0
1462, 0.0
1464, 0.0
1466, 0.0
1468, 0.0
1470, 0.0
1472, 0.0
1474, 0.0
1476, 0.0
1478, 0.0
1480, 0.0
1482, 0.0
1484, 0.0
1486, 0.0
1488, 0.0
1490, 0.0
1492, 0.0
1494, 0.0
1496, 0.0
1498, 0.0
1500, 0.0
1502, 0.0
1504, 0.0
1506, 0.0
1508, 0.0
1510, 0.0
1512, 0.0
1514, 0.0
1516, 0.0
1518, 0.0
1520, 0.0
1522, 0.0
1524, 0.0
1526, 0.0
1528, 0.0
1530, 0.0
1532, 0.0
1534, 0.0
1536, 0.0
1538, 0.0
1540, 0.0
1542, 0.0
1544, 0.0
1546, 0.0
1548, 0.0
1550, 0.0
1552, 0.0
1554, 0.0
1556, 0.0
1558, 0.0
1560, 0.0
1562, 0.0
1564, 0.0
1566, 0.0
1568, 0.0
1570, 0.0
1572, 0.0
1574, 0.0
1576, 0.0
1578, 0.0
1580, 0.0
1582, 0.0
1584, 0.0
1586, 0.0
1588, 0.0
1590, 0.0
1592, 0.0
1594, 0.0
1596, 0.0
1598, 0.0
1599, 0.0