File: raw data/Dataset_2/Ferrosilite/Ferrosilite__R070387__Raman__785__0__unoriented__Raman_Data_Processed__22237.txt
30, 0.0
32, 0.0
34, 0.0
36, 0.0
38, 0.0
40, 0.0
42, 0.0
44, 0.0
46, 0.0
48, 0.0
50, 0.0
52, 0.0
54, 0.0
56, 0.0
58, 0.0
60, 0.0
62, 0.0
64, 0.0
66, 0.0
68, 0.0
70, 0.0
72, 0.0
74, 0.0
76, 0.0
78, 0.0
80, 0.0
82, 0.0
84, 0.0
86, 0.0
88, 0.0
90, 0.0
92, 0.0
94, 0.0
96, 0.0
98, 0.0
100, 0.0
102, 0.0
104, 0.0
106, 0.0
108, 0.0
110, 0.0
112, 0.0
114, 0.0
116, 0.0
118, 0.0
120, 0.0
122, 0.0
124, 0.0
126, 0.0
128, 0.0
130, 0.0
132, 0.0
134, 0.0
136, 0.0
138, 0.0
140, 0.0
142, 0.0
144, 0.0
146, 0.0
148, 0.0
150, 0.0
152, 0.0
154, 0.0
156, 0.0
158, 0.0
160, 0.0
162, 0.0
164, 0.0
166, 0.0
168, 0.0
170, 0.0
172, 0.0
174, 0.0
176, 0.0
178, 0.0
180, 0.0
182, 0.0
184, 0.0
186, 0.0
188, 0.0
190, 0.0
192, 0.0
194, 0.0
196, 0.0
198, 0.0
200.0, 0.00585614
202.0, 0.00275122
204.0, 0.00122253
206.0, 0.0106345
208.0, 0.0341605
210.0, 0.0629653
212.0, 0.0590814
214.0, 0.0735037
216.0, 0.109006
218.0, 0.114993
220.0, 0.127196
222.0, 0.142738
224.0, 0.117751
226.0, 0.103099
228.0, 0.0938752
230.0, 0.068026
232.0, 0.0499632
234.0, 0.0561819
236.0, 0.0540066
238.0, 0.043249
240.0, 0.0533802
242.0, 0.0278163
244.0, 0.0353936
246.0, 0.0165599
248.0, 0.041615
250.0, 0.0541027
252.0, 0.0490183
254.0, 0.0492459
256.0, 0.0369829
258.0, 0.0202926
260.0, 0.0309042
262.0, 0.00135494
264.0, 0.000720113
266.0, 0.00488446
268.0, 0.0281433
270.0, 0.0189484
272.0, 0.00299382
274.0, 0.00758295
276.0, 0.0164442
278.0, 0.0238809
280.0, 0.025936
282.0, 0.0432237
284.0, 0.0319758
286.0, 0.0194039
288.0, 0.0279289
290.0, 0.0123004
292.0, 0.028586
294.0, 0.0275535
296.0, 0.0293474
298.0, 0.0577539
300.0, 0.0588828
302.0, 0.0887628
304.0, 0.124502
306.0, 0.15552
308.0, 0.207553
310.0, 0.244539
312.0, 0.338623
314.0, 0.404457
316.0, 0.493416
318.0, 0.594983
320.0, 0.666912
322.0, 0.775675
324.0, 0.877584
326.0, 0.952666
328.0, 0.996356
330.0, 0.982909
332.0, 0.910545
334.0, 0.804664
336.0, 0.658898
338.0, 0.535257
340.0, 0.429198
342.0, 0.350201
344.0, 0.283506
346.0, 0.226131
348.0, 0.180409
350.0, 0.165519
352.0, 0.129672
354.0, 0.11089
356.0, 0.0841813
358.0, 0.0671699
360.0, 0.0807067
362.0, 0.0708305
364.0, 0.0812361
366.0, 0.0844476
368.0, 0.0966932
370.0, 0.116633
372.0, 0.114836
374.0, 0.126066
376.0, 0.131135
378.0, 0.153229
380.0, 0.147954
382.0, 0.14976
384.0, 0.135659
386.0, 0.122699
388.0, 0.078592
390.0, 0.05234
392.0, 0.0280725
394.0, 0.0143897
396.0, 0.0151435
398.0, 0.00132306
400.0, 0.000336257
402.0, 0.00424876
404.0, 0.00249443
406.0, 0.0189316
408.0, 0.0218491
410.0, 0.0303906
412.0, 0.0682719
414.0, 0.0752161
416.0, 0.0873223
418.0, 0.0871528
420.0, 0.0985694
422.0, 0.0753928
424.0, 0.0462375
426.0, 0.0181629
428.0, 0.00959117
430.0, 0.00079916
432.0, 0.00294058
434.0, 0.00107756
436.0, 0.00250793
438.0, 0.00112378
440.0, 0.0020685
442.0, 0.00746072
444.0, 0.00644805
446.0, 0.013667
448.0, 0.0227277
450.0, 0.0403133
452.0, 0.028523
454.0, 0.0100237
456.0, 0.0124939
458.0, 0.00872057
460.0, 0.00127193
462.0, 0.00323715
464.0, 0.0112016
466.0, 0.00137049
468.0, 0.000904403
470.0, 0.00888672
472.0, 0.00919453
474.0, 0.00517372
476.0, 0.0087155
478.0, 0.0128718
480.0, 0.0174828
482.0, 0.000808068
484.0, 0.00162705
486.0, 0.00672572
488.0, 0.00629476
490.0, 0.0184949
492.0, 0.0286752
494.0, 0.0121827
496.0, 0.0403132
498.0, 0.0427165
500.0, 0.0513048
502.0, 0.0493247
504.0, 0.060491
506.0, 0.0830661
508.0, 0.0957246
510.0, 0.106922
512.0, 0.124507
514.0, 0.126025
516.0, 0.137079
518.0, 0.136367
520.0, 0.149293
522.0, 0.162726
524.0, 0.166153
526.0, 0.170683
528.0, 0.19584
530.0, 0.20862
532.0, 0.186541
534.0, 0.164692
536.0, 0.155288
538.0, 0.14544
540.0, 0.13936
542.0, 0.104799
544.0, 0.116121
546.0, 0.0970772
548.0, 0.0764728
550.0, 0.0786417
552.0, 0.0838639
554.0, 0.0737728
556.0, 0.0888271
558.0, 0.0802557
560.0, 0.0772672
562.0, 0.0799876
564.0, 0.0775649
566.0, 0.0591653
568.0, 0.0695528
570.0, 0.0554979
572.0, 0.0577302
574.0, 0.0532123
576.0, 0.0476092
578.0, 0.0489513
580.0, 0.0297787
582.0, 0.0440745
584.0, 0.0297922
586.0, 0.0222524
588.0, 0.0303069
590.0, 0.012047
592.0, 0.0119397
594.0, 0.0102035
596.0, 0.00948192
598.0, 0.00444329
600.0, 0.00357561
602.0, 0.0116526
604.0, 0.00822123
606.0, 0.00241654
608.0, 0.00184587
610.0, 0.00334587
612.0, 0.0017794
614.0, 0.00172412
616.0, 0.00261097
618.0, 0.0123224
620.0, 0.00267034
622.0, 0.0205839
624.0, 0.0230002
626.0, 0.0406683
628.0, 0.0311408
630.0, 0.0519944
632.0, 0.0629768
634.0, 0.0779301
636.0, 0.12824
638.0, 0.156667
640.0, 0.193245
642.0, 0.244289
644.0, 0.313345
646.0, 0.398694
648.0, 0.486363
650.0, 0.559446
652.0, 0.625168
654.0, 0.66675
656.0, 0.632387
658.0, 0.614935
660.0, 0.630067
662.0, 0.671659
664.0, 0.75375
666.0, 0.85195
668.0, 0.925441
670.0, 0.982195
672.0, 0.914985
674.0, 0.766136
676.0, 0.601411
678.0, 0.454823
680.0, 0.327876
682.0, 0.249563
684.0, 0.176069
686.0, 0.144322
688.0, 0.10908
690.0, 0.084023
692.0, 0.074578
694.0, 0.056268
696.0, 0.0459598
698.0, 0.0429264
700.0, 0.0282576
702.0, 0.00974154
704.0, 0.00408921
706.0, 0.00525691
708.0, 0.00980831
710.0, 0.00775749
712.0, 0.00753224
714.0, 0.00142658
716.0, 0.0141288
718.0, 0.00496143
720.0, 0.000511369
722.0, 0.0143482
724.0, 0.0119578
726.0, 0.0190826
728.0, 0.00172366
730.0, 0.0134195
732.0, 0.00794527
734.0, 0.01213
736.0, 0.0218849
738.0, 0.0175935
740.0, 0.0220595
742.0, 0.0138347
744.0, 0.0110072
746.0, 0.0193865
748.0, 0.0127723
750.0, 0.0108952
752.0, 0.0112484
754.0, 0.00101681
756.0, 0.00242472
758.0, 0.00424811
760.0, 0.000976678
762.0, 0.00743122
764.0, 0.00287026
766.0, 0.00663765
768.0, 0.0030233
770.0, 0.000620013
772.0, 0.0158262
774.0, 0.00238074
776.0, 0.00542721
778.0, 0.00697877
780.0, 0.00116442
782.0, 0.0159219
784.0, 0.00438414
786.0, 0.00547235
788.0, 0.0145471
790.0, 0.00510656
792.0, 0.0057123
794.0, 0.0124204
796.0, 0.0172866
798.0, 0.0088686
800.0, 0.0139663
802.0, 0.0131677
804.0, 0.022957
806.0, 0.0180677
808.0, 0.017502
810.0, 0.0222388
812.0, 0.020466
814.0, 0.0112277
816.0, 0.0216404
818.0, 0.0262444
820.0, 0.0298482
822.0, 0.0174618
824.0, 0.0292243
826.0, 0.017173
828.0, 0.0223664
830.0, 0.0208332
832.0, 0.00200469
834.0, 0.0132779
836.0, 0.0108323
838.0, 0.00621507
840.0, 0.00465127
842.0, 0.00233273
844.0, 0.0145727
846.0, 0.00999596
848.0, 0.00495808
850.0, 0.00775716
852.0, 0.00175518
854.0, 0.00423473
856.0, 0.0080557
858.0, 0.0125444
860.0, 0.00393008
862.0, 0.00745782
864.0, 0.00267231
866.0, 0.0222854
868.0, 0.011667
870.0, 0.0174616
872.0, 0.00935758
874.0, 0.0269495
876.0, 0.0369951
878.0, 0.031859
880.0, 0.0405424
882.0, 0.0468066
884.0, 0.0345851
886.0, 0.0350647
888.0, 0.030614
890.0, 0.0321257
892.0, 0.0191988
894.0, 0.0331012
896.0, 0.0237678
898.0, 0.0152298
900.0, 0.0150097
902.0, 0.0168251
904.0, 0.0160258
906.0, 0.00998382
908.0, 0.0104304
910.0, 0.00833452
912.0, 0.00899282
914.0, 0.00314178
916.0, 0.00643411
918.0, 0.000829445
920.0, 0.00689867
922.0, 0.00319464
924.0, 0.0050733
926.0, 0.00121849
928.0, 0.000385698
930.0, 0.0100261
932.0, 0.00927725
934.0, 0.021881
936.0, 0.0175134
938.0, 0.022324
940.0, 0.0372079
942.0, 0.0406435
944.0, 0.0392693
946.0, 0.0559691
948.0, 0.0615101
950.0, 0.0656302
952.0, 0.0553516
954.0, 0.0494958
956.0, 0.0420889
958.0, 0.0359498
960.0, 0.0123595
962.0, 0.0154284
964.0, 0.00994351
966.0, 0.00475741
968.0, 0.00033961
970.0, 0.0216903
972.0, 0.0200468
974.0, 0.0241072
976.0, 0.0492608
978.0, 0.0562562
980.0, 0.0834199
982.0, 0.120852
984.0, 0.179195
986.0, 0.247497
988.0, 0.318411
990.0, 0.42743
992.0, 0.489908
994.0, 0.578213
996.0, 0.576986
998.0, 0.545853
1000.0, 0.462955
1002.0, 0.36994
1004.0, 0.293039
1006.0, 0.223571
1008.0, 0.18572
1010.0, 0.140567
1012.0, 0.109648
1014.0, 0.0943299
1016.0, 0.0663141
1018.0, 0.055341
1020.0, 0.0384298
1022.0, 0.0273225
1024.0, 0.036693
1026.0, 0.0285459
1028.0, 0.0325735
1030.0, 0.0274154
1032.0, 0.0245653
1034.0, 0.00683054
1036.0, 0.00331335
1038.0, 0.00135694
1040.0, 0.0190789
1042.0, 0.0175639
1044.0, 0.00551123
1046.0, 0.00116618
1048.0, 0.0010793
1050.0, 0.00448438
1052.0, 0.0052689
1054.0, 0.00438281
1056.0, 0.00673787
1058.0, 0.00682612
1060.0, 0.0139211
1062.0, 0.00462498
1064.0, 0.00343565
1066.0, 0.00463625
1068.0, 0.00493275
1070.0, 0.00860519
1072.0, 0.00241679
1074.0, 0.00832519
1076.0, 0.0159201
1078.0, 0.00798175
1080.0, 0.0192056
1082.0, 0.00239135
1084.0, 0.0119772
1086.0, 0.00319684
1088.0, 0.0190018
1090.0, 0.00648563
1092.0, 0.00984369
1094.0, 0.0143407
1096.0, 0.0152562
1098.0, 0.0126465
1100.0, 0.00160179
1102.0, 0.0154804
1104.0, 0.0129282
1106.0, 0.00968486
1108.0, 0.0143772
1110.0, 0.00931174
1112.0, 0.00935709
1114.0, 0.0157653
1116.0, 0.0150293
1118.0, 0.0152938
1120.0, 0.0130257
1122.0, 0.0091788
1124.0, 0.00771833
1126.0, 0.0152213
1128.0, 0.022951
1130.0, 0.0222141
1132.0, 0.010296
1134.0, 0.0115758
1136.0, 0.0229432
1138.0, 0.00190637
1140.0, 0.0052648
1142.0, 0.00315482
1144.0, 0.00170086
1146.0, 0.0133378
1148.0, 0.00927234
1150.0, 0.00988898
1152.0, 0.00860703
1154.0, 0.00233422
1156.0, 0.0219594
1158.0, 0.00585807
1160.0, 0.0168407
1162.0, 0.00812482
1164.0, 0.0071502
1166.0, 0.0170135
1168.0, 0.00817253
1170.0, 0.001762
1172.0, 0.0167375
1174.0, 0.00167471
1176.0, 0.00488409
1178.0, 0.0154389
1180.0, 0.00900366
1182.0, 0.00813715
1184.0, 0.00622176
1186.0, 0.008475
1188.0, 0.00911182
1190.0, 0.00905634
1192.0, 0.0095587
1194.0, 0.00140503
1196.0, 0.00480784
1198.0, 0.022943
1200.0, 0.00728851
1202.0, 0.0106464
1204.0, 0.0100042
1206.0, 0.0111404
1208.0, 0.0173394
1210.0, 0.0102758
1212.0, 0.0109807
1214.0, 0.0316811
1216.0, 0.0169848
1218.0, 0.00185201
1220.0, 0.00781657
1222.0, 0.0150995
1224.0, 0.0085402
1226.0, 0.0224511
1228.0, 0.0147128
1230.0, 0.0196567
1232.0, 0.0201554
1234.0, 0.00903369
1236.0, 0.000952542
1238.0, 0.0143644
1240.0, 0.0219054
1242.0, 0.0133785
1244.0, 0.0211117
1246.0, 0.0126663
1248.0, 0.00242907
1250.0, 0.0185726
1252.0, 0.00169539
1254.0, 0.0159255
1256.0, 0.000725026
1258.0, 0.0205801
1260, 0.0
1262, 0.0
1264, 0.0
1266, 0.0
1268, 0.0
1270, 0.0
1272, 0.0
1274, 0.0
1276, 0.0
1278, 0.0
1280, 0.0
1282, 0.0
1284, 0.0
1286, 0.0
1288, 0.0
1290, 0.0
1292, 0.0
1294, 0.0
1296, 0.0
1298, 0.0
1300, 0.0
1302, 0.0
1304, 0.0
1306, 0.0
1308, 0.0
1310, 0.0
1312, 0.0
1314, 0.0
1316, 0.0
1318, 0.0
1320, 0.0
1322, 0.0
1324, 0.0
1326, 0.0
1328, 0.0
1330, 0.0
1332, 0.0
1334, 0.0
1336, 0.0
1338, 0.0
1340, 0.0
1342, 0.0
1344, 0.0
1346, 0.0
1348, 0.0
1350, 0.0
1352, 0.0
1354, 0.0
1356, 0.0
1358, 0.0
1360, 0.0
1362, 0.0
1364, 0.0
1366, 0.0
1368, 0.0
1370, 0.0
1372, 0.0
1374, 0.0
1376, 0.0
1378, 0.0
1380, 0.0
1382, 0.0
1384, 0.0
1386, 0.0
1388, 0.0
1390, 0.0
1392, 0.0
1394, 0.0
1396, 0.0
1398, 0.0
1400, 0.0
1402, 0.0
1404, 0.0
1406, 0.0
1408, 0.0
1410, 0.0
1412, 0.0
1414, 0.0
1416, 0.0
1418, 0.0
1420, 0.0
1422, 0.0
1424, 0.0
1426, 0.0
1428, 0.0
1430, 0.0
1432, 0.0
1434, 0.0
1436, 0.0
1438, 0.0
1440, 0.0
1442, 0.0
1444, 0.0
1446, 0.0
1448, 0.0
1450, 0.0
1452, 0.0
1454, 0.0
1456, 0.0
1458, 0.0
1460, 0.0
1462, 0.0
1464, 0.0
1466, 0.0
1468, 0.0
1470, 0.0
1472, 0.0
1474, 0.0
1476, 0.0
1478, 0.0
1480, 0.0
1482, 0.0
1484, 0.0
1486, 0.0
1488, 0.0
1490, 0.0
1492, 0.0
1494, 0.0
1496, 0.0
1498, 0.0
1500, 0.0
1502, 0.0
1504, 0.0
1506, 0.0
1508, 0.0
1510, 0.0
1512, 0.0
1514, 0.0
1516, 0.0
1518, 0.0
1520, 0.0
1522, 0.0
1524, 0.0
1526, 0.0
1528, 0.0
1530, 0.0
1532, 0.0
1534, 0.0
1536, 0.0
1538, 0.0
1540, 0.0
1542, 0.0
1544, 0.0
1546, 0.0
1548, 0.0
1550, 0.0
1552, 0.0
1554, 0.0
1556, 0.0
1558, 0.0
1560, 0.0
1562, 0.0
1564, 0.0
1566, 0.0
1568, 0.0
1570, 0.0
1572, 0.0
1574, 0.0
1576, 0.0
1578, 0.0
1580, 0.0
1582, 0.0
1584, 0.0
1586, 0.0
1588, 0.0
1590, 0.0
1592, 0.0
1594, 0.0
1596, 0.0
1598, 0.0
1599, 0.0