File: raw data/Dataset_2/Ferrosilite/Ferrosilite__R070387__Raman__532__0__unoriented__Raman_Data_Processed__22235.txt
30, 0.0
32, 0.0
34, 0.0
36, 0.0
38, 0.0
40, 0.0
42, 0.0
44, 0.0
46, 0.0
48, 0.0
50, 0.0
52, 0.0
54, 0.0
56, 0.0
58, 0.0
60, 0.0
62, 0.0
64, 0.0
66, 0.0
68, 0.0
70, 0.0
72, 0.0
74, 0.0
76, 0.0
78, 0.0
80, 0.0
82, 0.0
84, 0.0
86, 0.0
88, 0.0
90, 0.0
92, 0.0
94, 0.0
96, 0.0
98, 0.0
100, 0.0
102, 0.0
104, 0.0
106, 0.0
108, 0.0
110, 0.0
112, 0.0
114, 0.0
116, 0.0
118, 0.0
120, 0.0
122, 0.0
124, 0.0
126, 0.0
128, 0.0
130, 0.0
132, 0.0
134, 0.0
136, 0.0
138, 0.0
140, 0.0
142, 0.0
144, 0.0
146, 0.0
148, 0.0
150, 0.0
152, 0.0
154, 0.0
156, 0.0
158, 0.0
160, 0.0
162, 0.0
164, 0.0
166, 0.0
168, 0.0
170, 0.0
172, 0.0
174, 0.0
176, 0.0
178, 0.0
180, 0.0
182.0, 0.0173341
184.0, 0.0081015
186.0, 0.00606948
188.0, 0.00138594
190.0, 0.00424409
192.0, 0.00201108
194.0, 0.00264608
196.0, 0.00722755
198.0, 0.00634552
200.0, 0.00103501
202.0, 0.0129561
204.0, 0.0279682
206.0, 0.0300208
208.0, 0.0350296
210.0, 0.0545327
212.0, 0.0668721
214.0, 0.0711073
216.0, 0.0811325
218.0, 0.0938192
220.0, 0.0948073
222.0, 0.094577
224.0, 0.118195
226.0, 0.106412
228.0, 0.0883026
230.0, 0.0731895
232.0, 0.0538647
234.0, 0.0381586
236.0, 0.0261551
238.0, 0.0231357
240.0, 0.0139623
242.0, 0.00745302
244.0, 0.010032
246.0, 0.00927801
248.0, 0.00459932
250.0, 0.0156944
252.0, 0.0100292
254.0, 0.0103354
256.0, 0.0161903
258.0, 0.0141089
260.0, 0.00185294
262.0, 0.00610348
264.0, 0.010363
266.0, 0.00664622
268.0, 0.0129889
270.0, 0.00103054
272.0, 0.00194784
274.0, 0.00171618
276.0, 0.00992266
278.0, 0.016475
280.0, 0.0291514
282.0, 0.0246042
284.0, 0.0138183
286.0, 0.024726
288.0, 0.0166728
290.0, 0.0204467
292.0, 0.0297841
294.0, 0.0177681
296.0, 0.0248853
298.0, 0.0341319
300.0, 0.0418698
302.0, 0.0517544
304.0, 0.0711117
306.0, 0.082123
308.0, 0.113656
310.0, 0.143905
312.0, 0.20465
314.0, 0.241464
316.0, 0.30054
318.0, 0.358818
320.0, 0.435049
322.0, 0.51062
324.0, 0.587749
326.0, 0.649605
328.0, 0.688866
330.0, 0.657389
332.0, 0.608162
334.0, 0.510569
336.0, 0.426881
338.0, 0.346401
340.0, 0.275623
342.0, 0.210684
344.0, 0.175694
346.0, 0.140424
348.0, 0.11799
350.0, 0.0973544
352.0, 0.0851791
354.0, 0.0744177
356.0, 0.0697696
358.0, 0.0710638
360.0, 0.0859264
362.0, 0.0954149
364.0, 0.120495
366.0, 0.116818
368.0, 0.167365
370.0, 0.178828
372.0, 0.211355
374.0, 0.250362
376.0, 0.303172
378.0, 0.369798
380.0, 0.418043
382.0, 0.450236
384.0, 0.456261
386.0, 0.430522
388.0, 0.339529
390.0, 0.245193
392.0, 0.156293
394.0, 0.098651
396.0, 0.0705773
398.0, 0.0483747
400.0, 0.0271931
402.0, 0.0277371
404.0, 0.0176602
406.0, 0.0255055
408.0, 0.0312294
410.0, 0.0458411
412.0, 0.0526263
414.0, 0.0664807
416.0, 0.0751132
418.0, 0.0713086
420.0, 0.0667032
422.0, 0.0494557
424.0, 0.025286
426.0, 0.00354932
428.0, 0.00143778
430.0, 0.00278292
432.0, 0.0117361
434.0, 0.00575463
436.0, 0.00662063
438.0, 0.00587832
440.0, 0.00633271
442.0, 0.0131075
444.0, 0.00367916
446.0, 0.0159151
448.0, 0.0190101
450.0, 0.0216221
452.0, 0.0176921
454.0, 0.0135969
456.0, 0.0171939
458.0, 0.00854152
460.0, 0.00354535
462.0, 0.00333457
464.0, 0.0010789
466.0, 0.00358472
468.0, 0.0057472
470.0, 0.000986459
472.0, 0.000921044
474.0, 0.00799163
476.0, 0.00413319
478.0, 0.0028364
480.0, 0.00285223
482.0, 0.0116711
484.0, 0.00328612
486.0, 0.0151651
488.0, 0.00968347
490.0, 0.00941857
492.0, 0.0131722
494.0, 0.0159752
496.0, 0.0178012
498.0, 0.0297574
500.0, 0.0392817
502.0, 0.0460339
504.0, 0.0638684
506.0, 0.0817517
508.0, 0.106896
510.0, 0.120433
512.0, 0.138795
514.0, 0.138551
516.0, 0.134016
518.0, 0.12837
520.0, 0.125252
522.0, 0.137338
524.0, 0.155307
526.0, 0.167303
528.0, 0.18126
530.0, 0.194564
532.0, 0.188575
534.0, 0.174815
536.0, 0.166465
538.0, 0.152979
540.0, 0.141389
542.0, 0.129496
544.0, 0.0983555
546.0, 0.0780731
548.0, 0.0699204
550.0, 0.0562718
552.0, 0.0570102
554.0, 0.0472257
556.0, 0.0475503
558.0, 0.0414096
560.0, 0.0369678
562.0, 0.042411
564.0, 0.0244453
566.0, 0.0350587
568.0, 0.0283051
570.0, 0.0186116
572.0, 0.0205537
574.0, 0.0240794
576.0, 0.0205438
578.0, 0.020109
580.0, 0.0170849
582.0, 0.0126524
584.0, 0.0058632
586.0, 0.015122
588.0, 0.00695581
590.0, 0.000915903
592.0, 0.010693
594.0, 0.00261725
596.0, 0.0026381
598.0, 0.00049798
600.0, 0.00429066
602.0, 0.00497982
604.0, 0.00351928
606.0, 0.00191796
608.0, 0.00665002
610.0, 0.00222448
612.0, 0.000635167
614.0, 0.00385084
616.0, 0.0078808
618.0, 0.0130467
620.0, 0.00369157
622.0, 0.00937145
624.0, 0.0171965
626.0, 0.0213478
628.0, 0.0192714
630.0, 0.0299106
632.0, 0.0366855
634.0, 0.0374848
636.0, 0.0522911
638.0, 0.0727699
640.0, 0.104924
642.0, 0.145701
644.0, 0.174552
646.0, 0.231137
648.0, 0.268817
650.0, 0.311583
652.0, 0.350141
654.0, 0.363421
656.0, 0.348802
658.0, 0.337304
660.0, 0.351711
662.0, 0.381105
664.0, 0.445712
666.0, 0.49071
668.0, 0.553953
670.0, 0.57918
672.0, 0.537866
674.0, 0.45294
676.0, 0.339184
678.0, 0.250513
680.0, 0.185717
682.0, 0.13772
684.0, 0.104724
686.0, 0.0742759
688.0, 0.0622284
690.0, 0.0420406
692.0, 0.0319465
694.0, 0.0306955
696.0, 0.0281529
698.0, 0.0115771
700.0, 0.010355
702.0, 0.0216457
704.0, 0.00941707
706.0, 0.00323488
708.0, 0.00257371
710.0, 0.00582845
712.0, 0.00204569
714.0, 0.00119818
716.0, 0.00513224
718.0, 0.00519401
720.0, 0.000834998
722.0, 0.00146768
724.0, 0.0121156
726.0, 0.0132683
728.0, 0.00473521
730.0, 0.0157988
732.0, 0.0206589
734.0, 0.020227
736.0, 0.0220806
738.0, 0.028174
740.0, 0.0175372
742.0, 0.0212275
744.0, 0.0208661
746.0, 0.0170723
748.0, 0.0304891
750.0, 0.0176657
752.0, 0.01632
754.0, 0.00395425
756.0, 0.00309493
758.0, 0.00430948
760.0, 0.000981744
762.0, 0.00224385
764.0, 0.00232963
766.0, 0.00208873
768.0, 0.00144025
770.0, 0.00252985
772.0, 0.00787798
774.0, 0.00300252
776.0, 0.00266273
778.0, 0.00676869
780.0, 0.0056675
782.0, 0.00650416
784.0, 0.000501133
786.0, 0.00686661
788.0, 0.0106294
790.0, 0.0047722
792.0, 0.0109196
794.0, 0.00672702
796.0, 0.014344
798.0, 0.0173639
800.0, 0.0121523
802.0, 0.0167189
804.0, 0.0168486
806.0, 0.0108077
808.0, 0.0174686
810.0, 0.0220253
812.0, 0.0159577
814.0, 0.0239675
816.0, 0.0159655
818.0, 0.0219936
820.0, 0.018227
822.0, 0.0257921
824.0, 0.0215193
826.0, 0.0204159
828.0, 0.0184268
830.0, 0.0276043
832.0, 0.0115481
834.0, 0.0135898
836.0, 0.0118704
838.0, 0.0142916
840.0, 0.010358
842.0, 0.0148153
844.0, 0.00262233
846.0, 0.00523016
848.0, 0.00773055
850.0, 0.00345602
852.0, 0.00130497
854.0, 0.00346451
856.0, 0.00973031
858.0, 0.000797916
860.0, 0.00359708
862.0, 0.00397896
864.0, 0.00134634
866.0, 0.0124764
868.0, 0.0101843
870.0, 0.00781562
872.0, 0.0149298
874.0, 0.0191164
876.0, 0.0213181
878.0, 0.0286832
880.0, 0.031245
882.0, 0.0356973
884.0, 0.0339538
886.0, 0.035109
888.0, 0.0384111
890.0, 0.0294984
892.0, 0.0279061
894.0, 0.0301452
896.0, 0.0216656
898.0, 0.0155038
900.0, 0.0103978
902.0, 0.0007192
904.0, 0.00720727
906.0, 0.0031654
908.0, 0.00200382
910.0, 0.000802315
912.0, 0.0017219
914.0, 0.00323212
916.0, 0.00259866
918.0, 0.00148908
920.0, 0.00389666
922.0, 0.012243
924.0, 0.00199156
926.0, 0.0113785
928.0, 0.0141413
930.0, 0.0104819
932.0, 0.0187946
934.0, 0.0311119
936.0, 0.0372545
938.0, 0.059401
940.0, 0.0786437
942.0, 0.0954803
944.0, 0.127766
946.0, 0.146836
948.0, 0.15921
950.0, 0.150261
952.0, 0.140937
954.0, 0.106019
956.0, 0.0813996
958.0, 0.053809
960.0, 0.0235544
962.0, 0.026661
964.0, 0.00494577
966.0, 0.00899282
968.0, 0.00441887
970.0, 0.0109488
972.0, 0.0284036
974.0, 0.0388054
976.0, 0.0527728
978.0, 0.0834487
980.0, 0.125267
982.0, 0.18159
984.0, 0.266839
986.0, 0.382665
988.0, 0.527179
990.0, 0.695144
992.0, 0.843721
994.0, 0.962495
996.0, 0.995544
998.0, 0.930681
1000.0, 0.786837
1002.0, 0.633383
1004.0, 0.480806
1006.0, 0.367896
1008.0, 0.286406
1010.0, 0.225236
1012.0, 0.189758
1014.0, 0.135281
1016.0, 0.124934
1018.0, 0.0842024
1020.0, 0.0727242
1022.0, 0.0632171
1024.0, 0.0504763
1026.0, 0.0536638
1028.0, 0.0459704
1030.0, 0.0450598
1032.0, 0.0359069
1034.0, 0.0146923
1036.0, 0.0240426
1038.0, 0.00654417
1040.0, 0.0125123
1042.0, 0.00563466
1044.0, 0.00695641
1046.0, 0.00354058
1048.0, 0.00119128
1050.0, 0.00451995
1052.0, 0.00308397
1054.0, 0.00174451
1056.0, 0.00732534
1058.0, 0.00154392
1060.0, 0.000761801
1062.0, 0.00268035
1064.0, 0.00135329
1066.0, 0.000931831
1068.0, 0.00264845
1070.0, 0.00596483
1072.0, 0.00745275
1074.0, 0.00623654
1076.0, 0.00599489
1078.0, 0.00477615
1080.0, 0.0117658
1082.0, 0.00667574
1084.0, 0.0116136
1086.0, 0.0102878
1088.0, 0.0116849
1090.0, 0.0140278
1092.0, 0.0177854
1094.0, 0.0153268
1096.0, 0.0121718
1098.0, 0.015903
1100.0, 0.0146898
1102.0, 0.0182613
1104.0, 0.0197125
1106.0, 0.0130349
1108.0, 0.012562
1110.0, 0.0141719
1112.0, 0.0152805
1114.0, 0.0203201
1116.0, 0.0144715
1118.0, 0.0177862
1120.0, 0.00293246
1122.0, 0.00640909
1124.0, 0.00828017
1126.0, 0.00542206
1128.0, 0.00140502
1130.0, 0.00544123
1132.0, 0.0107228
1134.0, 0.0028153
1136.0, 0.0112906
1138.0, 0.00425142
1140.0, 0.00733157
1142.0, 0.00509542
1144.0, 0.00454445
1146.0, 0.00586742
1148.0, 0.00829747
1150.0, 0.0100928
1152.0, 0.0126423
1154.0, 0.0126949
1156.0, 0.00996206
1158.0, 0.0130521
1160.0, 0.00673077
1162.0, 0.00395639
1164.0, 0.000374003
1166.0, 0.0039756
1168.0, 0.00606162
1170.0, 0.00624897
1172.0, 0.00831478
1174.0, 0.00963025
1176.0, 0.00900292
1178.0, 0.00497419
1180.0, 0.0155859
1182.0, 0.00315984
1184.0, 0.0115035
1186.0, 0.0113274
1188.0, 0.00807153
1190.0, 0.00672262
1192.0, 0.00266187
1194.0, 0.00861108
1196.0, 0.0132138
1198.0, 0.00865705
1200.0, 0.00322578
1202.0, 0.00762385
1204.0, 0.00866783
1206.0, 0.00823723
1208.0, 0.000780859
1210.0, 0.0061954
1212.0, 0.000744693
1214.0, 0.0106835
1216.0, 0.00885306
1218.0, 0.00299639
1220.0, 0.00715732
1222.0, 0.00904899
1224.0, 0.0112893
1226.0, 0.00943745
1228.0, 0.00127148
1230.0, 0.00149278
1232.0, 0.00748416
1234.0, 0.00912425
1236.0, 0.00608571
1238.0, 0.00690113
1240.0, 0.012607
1242.0, 0.00690435
1244.0, 0.000610661
1246.0, 0.0077007
1248.0, 0.00624379
1250.0, 0.00687496
1252.0, 0.00872595
1254.0, 0.00588017
1256.0, 0.0114577
1258.0, 0.00673591
1260.0, 0.0049832
1262.0, 0.00576054
1264.0, 0.00510862
1266.0, 0.00839179
1268.0, 0.00957891
1270.0, 0.00701863
1272.0, 0.00612647
1274.0, 0.0056889
1276.0, 0.0053181
1278.0, 0.00234622
1280.0, 0.00731388
1282.0, 0.00646776
1284.0, 0.000570527
1286.0, 0.00096886
1288.0, 0.00354074
1290.0, 0.00272849
1292.0, 0.00301143
1294.0, 0.00588903
1296.0, 0.00853564
1298.0, 0.000597159
1300.0, 0.00392859
1302, 0.0
1304, 0.0
1306, 0.0
1308, 0.0
1310, 0.0
1312, 0.0
1314, 0.0
1316, 0.0
1318, 0.0
1320, 0.0
1322, 0.0
1324, 0.0
1326, 0.0
1328, 0.0
1330, 0.0
1332, 0.0
1334, 0.0
1336, 0.0
1338, 0.0
1340, 0.0
1342, 0.0
1344, 0.0
1346, 0.0
1348, 0.0
1350, 0.0
1352, 0.0
1354, 0.0
1356, 0.0
1358, 0.0
1360, 0.0
1362, 0.0
1364, 0.0
1366, 0.0
1368, 0.0
1370, 0.0
1372, 0.0
1374, 0.0
1376, 0.0
1378, 0.0
1380, 0.0
1382, 0.0
1384, 0.0
1386, 0.0
1388, 0.0
1390, 0.0
1392, 0.0
1394, 0.0
1396, 0.0
1398, 0.0
1400, 0.0
1402, 0.0
1404, 0.0
1406, 0.0
1408, 0.0
1410, 0.0
1412, 0.0
1414, 0.0
1416, 0.0
1418, 0.0
1420, 0.0
1422, 0.0
1424, 0.0
1426, 0.0
1428, 0.0
1430, 0.0
1432, 0.0
1434, 0.0
1436, 0.0
1438, 0.0
1440, 0.0
1442, 0.0
1444, 0.0
1446, 0.0
1448, 0.0
1450, 0.0
1452, 0.0
1454, 0.0
1456, 0.0
1458, 0.0
1460, 0.0
1462, 0.0
1464, 0.0
1466, 0.0
1468, 0.0
1470, 0.0
1472, 0.0
1474, 0.0
1476, 0.0
1478, 0.0
1480, 0.0
1482, 0.0
1484, 0.0
1486, 0.0
1488, 0.0
1490, 0.0
1492, 0.0
1494, 0.0
1496, 0.0
1498, 0.0
1500, 0.0
1502, 0.0
1504, 0.0
1506, 0.0
1508, 0.0
1510, 0.0
1512, 0.0
1514, 0.0
1516, 0.0
1518, 0.0
1520, 0.0
1522, 0.0
1524, 0.0
1526, 0.0
1528, 0.0
1530, 0.0
1532, 0.0
1534, 0.0
1536, 0.0
1538, 0.0
1540, 0.0
1542, 0.0
1544, 0.0
1546, 0.0
1548, 0.0
1550, 0.0
1552, 0.0
1554, 0.0
1556, 0.0
1558, 0.0
1560, 0.0
1562, 0.0
1564, 0.0
1566, 0.0
1568, 0.0
1570, 0.0
1572, 0.0
1574, 0.0
1576, 0.0
1578, 0.0
1580, 0.0
1582, 0.0
1584, 0.0
1586, 0.0
1588, 0.0
1590, 0.0
1592, 0.0
1594, 0.0
1596, 0.0
1598, 0.0
1599, 0.0