File: raw data/Dataset_2/Ferrosilite/Ferrosilite__R070386__Raman__532__0__unoriented__Raman_Data_Processed__22223.txt
30, 0.0
32, 0.0
34, 0.0
36, 0.0
38, 0.0
40, 0.0
42, 0.0
44, 0.0
46, 0.0
48, 0.0
50, 0.0
52, 0.0
54, 0.0
56, 0.0
58, 0.0
60, 0.0
62, 0.0
64, 0.0
66, 0.0
68, 0.0
70, 0.0
72, 0.0
74, 0.0
76, 0.0
78, 0.0
80, 0.0
82, 0.0
84, 0.0
86, 0.0
88, 0.0
90, 0.0
92, 0.0
94, 0.0
96, 0.0
98, 0.0
100, 0.0
102, 0.0
104, 0.0
106, 0.0
108, 0.0
110, 0.0
112, 0.0
114, 0.0
116, 0.0
118, 0.0
120, 0.0
122, 0.0
124, 0.0
126, 0.0
128, 0.0
130, 0.0
132, 0.0
134, 0.0
136, 0.0
138, 0.0
140, 0.0
142, 0.0
144, 0.0
146, 0.0
148, 0.0
150, 0.0
152, 0.0
154, 0.0
156, 0.0
158, 0.0
160, 0.0
162, 0.0
164, 0.0
166, 0.0
168, 0.0
170, 0.0
172, 0.0
174, 0.0
176, 0.0
178.0, 0.00531884
180.0, 0.000331237
182.0, 0.00785236
184.0, 0.00759735
186.0, 0.0160625
188.0, 0.00448952
190.0, 0.0124834
192.0, 0.00859757
194.0, 0.00645066
196.0, 0.0184227
198.0, 0.002405
200.0, 0.00199688
202.0, 0.00510658
204.0, 0.0102674
206.0, 0.00093739
208.0, 0.00516836
210.0, 0.00600065
212.0, 0.0106279
214.0, 0.00241387
216.0, 0.00250698
218.0, 0.0103668
220.0, 0.00441519
222.0, 0.00882416
224.0, 0.0231009
226.0, 0.012526
228.0, 0.0239241
230.0, 0.0178466
232.0, 0.0251392
234.0, 0.0286957
236.0, 0.0358946
238.0, 0.0405212
240.0, 0.0473607
242.0, 0.044855
244.0, 0.0574268
246.0, 0.0625544
248.0, 0.047589
250.0, 0.0590269
252.0, 0.0451175
254.0, 0.0342826
256.0, 0.035366
258.0, 0.0289849
260.0, 0.0140494
262.0, 0.0147223
264.0, 0.00480815
266.0, 0.00789728
268.0, 0.00215217
270.0, 0.0068065
272.0, 0.000866486
274.0, 0.0034512
276.0, 0.00757852
278.0, 0.00247559
280.0, 0.00205589
282.0, 0.000561883
284.0, 0.00388912
286.0, 0.010389
288.0, 0.0150854
290.0, 0.026925
292.0, 0.0454787
294.0, 0.0491196
296.0, 0.0679562
298.0, 0.0910578
300.0, 0.114765
302.0, 0.15157
304.0, 0.187737
306.0, 0.217209
308.0, 0.241264
310.0, 0.254992
312.0, 0.269853
314.0, 0.26201
316.0, 0.254634
318.0, 0.254432
320.0, 0.245195
322.0, 0.243945
324.0, 0.245342
326.0, 0.229115
328.0, 0.224038
330.0, 0.212112
332.0, 0.181431
334.0, 0.159913
336.0, 0.135007
338.0, 0.130567
340.0, 0.127606
342.0, 0.116014
344.0, 0.13084
346.0, 0.134143
348.0, 0.141635
350.0, 0.153175
352.0, 0.171692
354.0, 0.165234
356.0, 0.153913
358.0, 0.138433
360.0, 0.134023
362.0, 0.120103
364.0, 0.10657
366.0, 0.0885759
368.0, 0.0881066
370.0, 0.0699438
372.0, 0.0685829
374.0, 0.0549526
376.0, 0.0560348
378.0, 0.0579053
380.0, 0.052135
382.0, 0.0497831
384.0, 0.042366
386.0, 0.0558939
388.0, 0.0455242
390.0, 0.047735
392.0, 0.0526939
394.0, 0.0470661
396.0, 0.0487963
398.0, 0.0508695
400.0, 0.0271358
402.0, 0.0332338
404.0, 0.0231854
406.0, 0.0166953
408.0, 0.00292109
410.0, 0.000681279
412.0, 0.000370804
414.0, 0.00216753
416.0, 0.00153995
418.0, 0.00471084
420.0, 0.00140528
422.0, 0.00128214
424.0, 0.00189464
426.0, 0.00898449
428.0, 0.00158206
430.0, 0.00844944
432.0, 0.00646963
434.0, 0.00517693
436.0, 0.0137495
438.0, 0.00585778
440.0, 0.00279886
442.0, 0.012267
444.0, 0.00708863
446.0, 0.0120626
448.0, 0.0030936
450.0, 0.0121387
452.0, 0.00316992
454.0, 0.00319987
456.0, 0.0174844
458.0, 0.00523391
460.0, 0.0164866
462.0, 0.00164401
464.0, 0.0152915
466.0, 0.0162072
468.0, 0.0190138
470.0, 0.0142682
472.0, 0.0115844
474.0, 0.0107039
476.0, 0.00856179
478.0, 0.00762779
480.0, 0.0109451
482.0, 0.00794665
484.0, 0.00830777
486.0, 0.00912549
488.0, 0.0148416
490.0, 0.0125938
492.0, 0.0133248
494.0, 0.0234095
496.0, 0.0226533
498.0, 0.0343185
500.0, 0.0417164
502.0, 0.0461467
504.0, 0.0462038
506.0, 0.0466303
508.0, 0.0580911
510.0, 0.0562401
512.0, 0.0695957
514.0, 0.0728509
516.0, 0.0775279
518.0, 0.0953381
520.0, 0.103767
522.0, 0.110011
524.0, 0.118114
526.0, 0.105524
528.0, 0.088505
530.0, 0.0801026
532.0, 0.0755018
534.0, 0.0728024
536.0, 0.0660575
538.0, 0.0569523
540.0, 0.0554062
542.0, 0.070889
544.0, 0.05936
546.0, 0.0533152
548.0, 0.0606014
550.0, 0.0497154
552.0, 0.0488299
554.0, 0.0365143
556.0, 0.0342194
558.0, 0.0246781
560.0, 0.01829
562.0, 0.0301704
564.0, 0.0115195
566.0, 0.0245215
568.0, 0.0203976
570.0, 0.0100815
572.0, 0.0133895
574.0, 0.0153205
576.0, 0.00632931
578.0, 0.00829666
580.0, 0.00489822
582.0, 0.00645175
584.0, 0.00432447
586.0, 0.00262671
588.0, 0.000460609
590.0, 0.00687424
592.0, 0.0037093
594.0, 0.00211801
596.0, 0.00277356
598.0, 0.00305557
600.0, 0.00270161
602.0, 0.00705957
604.0, 0.0160458
606.0, 0.0183902
608.0, 0.0222822
610.0, 0.0195333
612.0, 0.0259378
614.0, 0.0273514
616.0, 0.0276355
618.0, 0.0271506
620.0, 0.0271048
622.0, 0.0436667
624.0, 0.0541683
626.0, 0.0797137
628.0, 0.091076
630.0, 0.117893
632.0, 0.139514
634.0, 0.150864
636.0, 0.178328
638.0, 0.196134
640.0, 0.213093
642.0, 0.220114
644.0, 0.231479
646.0, 0.253466
648.0, 0.279068
650.0, 0.34094
652.0, 0.422827
654.0, 0.511212
656.0, 0.587227
658.0, 0.644675
660.0, 0.685612
662.0, 0.660671
664.0, 0.583129
666.0, 0.473277
668.0, 0.366655
670.0, 0.279423
672.0, 0.207729
674.0, 0.151606
676.0, 0.11003
678.0, 0.0860933
680.0, 0.0673886
682.0, 0.0482604
684.0, 0.0342268
686.0, 0.0267171
688.0, 0.0263501
690.0, 0.0187705
692.0, 0.00757247
694.0, 0.0117065
696.0, 0.0134611
698.0, 0.000924265
700.0, 0.00435475
702.0, 0.0100571
704.0, 0.0019395
706.0, 0.00320023
708.0, 0.000880782
710.0, 0.00260161
712.0, 0.00431877
714.0, 0.00188824
716.0, 0.00462931
718.0, 0.00430552
720.0, 0.00418793
722.0, 0.00967573
724.0, 0.0113389
726.0, 0.0117548
728.0, 0.0074119
730.0, 0.0200588
732.0, 0.0184052
734.0, 0.0164677
736.0, 0.0163509
738.0, 0.019279
740.0, 0.00486012
742.0, 0.0137678
744.0, 0.0150844
746.0, 0.0109478
748.0, 0.0183646
750.0, 0.00837149
752.0, 0.00708338
754.0, 0.00276184
756.0, 0.00532356
758.0, 0.00536748
760.0, 0.0111058
762.0, 0.00584749
764.0, 0.00639861
766.0, 0.00552678
768.0, 0.00135555
770.0, 0.00066984
772.0, 0.00652756
774.0, 0.00596558
776.0, 0.00135348
778.0, 0.0085538
780.0, 0.00883867
782.0, 0.00869859
784.0, 0.000996618
786.0, 0.0116838
788.0, 0.0136276
790.0, 0.0175335
792.0, 0.0192871
794.0, 0.018241
796.0, 0.0188251
798.0, 0.0286508
800.0, 0.0109255
802.0, 0.0226114
804.0, 0.020808
806.0, 0.0215285
808.0, 0.0221357
810.0, 0.024943
812.0, 0.0215758
814.0, 0.0227678
816.0, 0.0189737
818.0, 0.0249889
820.0, 0.0194981
822.0, 0.0232395
824.0, 0.0163044
826.0, 0.015634
828.0, 0.012508
830.0, 0.0198014
832.0, 0.011812
834.0, 0.0123075
836.0, 0.0114859
838.0, 0.0144713
840.0, 0.0100492
842.0, 0.0124212
844.0, 0.00661378
846.0, 0.00745524
848.0, 0.00161971
850.0, 0.00491931
852.0, 0.00251731
854.0, 0.00602399
856.0, 0.00965448
858.0, 0.00546877
860.0, 0.00155108
862.0, 0.00420632
864.0, 0.0021738
866.0, 0.00950356
868.0, 0.00136173
870.0, 0.00338636
872.0, 0.000812597
874.0, 0.000490672
876.0, 0.00327617
878.0, 0.0133682
880.0, 0.0128698
882.0, 0.0167864
884.0, 0.0122915
886.0, 0.0164558
888.0, 0.0219496
890.0, 0.0173473
892.0, 0.0130716
894.0, 0.0197463
896.0, 0.0149508
898.0, 0.0112313
900.0, 0.0120398
902.0, 0.0105411
904.0, 0.00530577
906.0, 0.0123228
908.0, 0.0203347
910.0, 0.0209526
912.0, 0.0215457
914.0, 0.020451
916.0, 0.0191511
918.0, 0.0203243
920.0, 0.0212762
922.0, 0.0129334
924.0, 0.000793558
926.0, 0.00999094
928.0, 0.00682575
930.0, 0.00748097
932.0, 0.00433886
934.0, 0.0184939
936.0, 0.0189292
938.0, 0.0310004
940.0, 0.0429586
942.0, 0.0543678
944.0, 0.0794924
946.0, 0.0863203
948.0, 0.095154
950.0, 0.0965583
952.0, 0.0889106
954.0, 0.0854287
956.0, 0.0783391
958.0, 0.0651372
960.0, 0.0479782
962.0, 0.0593152
964.0, 0.0480765
966.0, 0.0669117
968.0, 0.078631
970.0, 0.0967232
972.0, 0.12867
974.0, 0.173086
976.0, 0.229224
978.0, 0.295417
980.0, 0.395493
982.0, 0.520522
984.0, 0.649882
986.0, 0.796981
988.0, 0.928403
990.0, 0.996784
992.0, 0.981617
994.0, 0.894312
996.0, 0.754509
998.0, 0.582528
1000.0, 0.439739
1002.0, 0.334775
1004.0, 0.259457
1006.0, 0.18894
1008.0, 0.146545
1010.0, 0.114991
1012.0, 0.0873809
1014.0, 0.0652807
1016.0, 0.0593973
1018.0, 0.0330785
1020.0, 0.0306161
1022.0, 0.0219522
1024.0, 0.0160919
1026.0, 0.0187571
1028.0, 0.00542226
1030.0, 0.00483307
1032.0, 0.00250791
1034.0, 0.0051236
1036.0, 0.000476428
1038.0, 0.00451683
1040.0, 0.00352171
1042.0, 0.00356931
1044.0, 0.00480491
1046.0, 0.00284995
1048.0, 0.00166296
1050.0, 0.000835613
1052.0, 0.00158522
1054.0, 0.00203486
1056.0, 0.000195573
1058.0, 0.00318785
1060.0, 0.00879564
1062.0, 0.0122892
1064.0, 0.00612044
1066.0, 0.00866425
1068.0, 0.00505173
1070.0, 0.0057801
1072.0, 0.0151074
1074.0, 0.0104717
1076.0, 0.00818668
1078.0, 0.00675778
1080.0, 0.00764762
1082.0, 0.00468774
1084.0, 0.0130891
1086.0, 0.010679
1088.0, 0.010489
1090.0, 0.0149115
1092.0, 0.0164417
1094.0, 0.0131584
1096.0, 0.0138019
1098.0, 0.0140712
1100.0, 0.00323469
1102.0, 0.0125462
1104.0, 0.0162585
1106.0, 0.00798127
1108.0, 0.0112089
1110.0, 0.00964682
1112.0, 0.00742523
1114.0, 0.0160233
1116.0, 0.00787475
1118.0, 0.0144909
1120.0, 0.00516263
1122.0, 0.000928906
1124.0, 0.00778668
1126.0, 0.00774276
1128.0, 0.00248978
1130.0, 0.00903261
1132.0, 0.0115194
1134.0, 0.00798416
1136.0, 0.0121822
1138.0, 0.00414841
1140.0, 0.0137433
1142.0, 0.00833106
1144.0, 0.00260166
1146.0, 0.00119882
1148.0, 0.0113381
1150.0, 0.0108629
1152.0, 0.0114053
1154.0, 0.00593049
1156.0, 0.0101725
1158.0, 0.0138741
1160.0, 0.0133099
1162.0, 0.00533057
1164.0, 0.00330027
1166.0, 0.00271873
1168.0, 0.00509828
1170.0, 0.00620677
1172.0, 0.00405088
1174.0, 0.00696703
1176.0, 0.0070356
1178.0, 0.00322092
1180.0, 0.016271
1182.0, 0.0124124
1184.0, 0.0112661
1186.0, 0.00896252
1188.0, 0.00652009
1190.0, 0.0102373
1192.0, 0.00465562
1194.0, 0.0127453
1196.0, 0.0101297
1198.0, 0.00942429
1200.0, 0.00137977
1202.0, 0.0110702
1204.0, 0.00367139
1206.0, 0.00584997
1208.0, 0.00210116
1210.0, 0.0055611
1212.0, 0.00142519
1214.0, 0.00941214
1216.0, 0.011887
1218.0, 0.0081307
1220.0, 0.00265506
1222.0, 0.00700509
1224.0, 0.0120677
1226.0, 0.0073336
1228.0, 0.00294592
1230.0, 0.00317403
1232.0, 0.00684481
1234.0, 0.00384634
1236.0, 0.00677795
1238.0, 0.00806501
1240.0, 0.0168429
1242.0, 0.0053753
1244.0, 0.00195222
1246.0, 0.00678006
1248.0, 0.0047915
1250.0, 0.00764227
1252.0, 0.0139835
1254.0, 0.00469126
1256.0, 0.0129188
1258.0, 0.00549558
1260.0, 0.0046795
1262.0, 0.00267347
1264.0, 0.0072255
1266.0, 0.0065243
1268.0, 0.0111418
1270.0, 0.00940155
1272.0, 0.00931697
1274.0, 0.00748402
1276.0, 0.00951668
1278.0, 0.0110911
1280.0, 0.00314525
1282.0, 0.0158953
1284.0, 0.00199389
1286.0, 0.0135313
1288.0, 0.00649951
1290, 0.0
1292, 0.0
1294, 0.0
1296, 0.0
1298, 0.0
1300, 0.0
1302, 0.0
1304, 0.0
1306, 0.0
1308, 0.0
1310, 0.0
1312, 0.0
1314, 0.0
1316, 0.0
1318, 0.0
1320, 0.0
1322, 0.0
1324, 0.0
1326, 0.0
1328, 0.0
1330, 0.0
1332, 0.0
1334, 0.0
1336, 0.0
1338, 0.0
1340, 0.0
1342, 0.0
1344, 0.0
1346, 0.0
1348, 0.0
1350, 0.0
1352, 0.0
1354, 0.0
1356, 0.0
1358, 0.0
1360, 0.0
1362, 0.0
1364, 0.0
1366, 0.0
1368, 0.0
1370, 0.0
1372, 0.0
1374, 0.0
1376, 0.0
1378, 0.0
1380, 0.0
1382, 0.0
1384, 0.0
1386, 0.0
1388, 0.0
1390, 0.0
1392, 0.0
1394, 0.0
1396, 0.0
1398, 0.0
1400, 0.0
1402, 0.0
1404, 0.0
1406, 0.0
1408, 0.0
1410, 0.0
1412, 0.0
1414, 0.0
1416, 0.0
1418, 0.0
1420, 0.0
1422, 0.0
1424, 0.0
1426, 0.0
1428, 0.0
1430, 0.0
1432, 0.0
1434, 0.0
1436, 0.0
1438, 0.0
1440, 0.0
1442, 0.0
1444, 0.0
1446, 0.0
1448, 0.0
1450, 0.0
1452, 0.0
1454, 0.0
1456, 0.0
1458, 0.0
1460, 0.0
1462, 0.0
1464, 0.0
1466, 0.0
1468, 0.0
1470, 0.0
1472, 0.0
1474, 0.0
1476, 0.0
1478, 0.0
1480, 0.0
1482, 0.0
1484, 0.0
1486, 0.0
1488, 0.0
1490, 0.0
1492, 0.0
1494, 0.0
1496, 0.0
1498, 0.0
1500, 0.0
1502, 0.0
1504, 0.0
1506, 0.0
1508, 0.0
1510, 0.0
1512, 0.0
1514, 0.0
1516, 0.0
1518, 0.0
1520, 0.0
1522, 0.0
1524, 0.0
1526, 0.0
1528, 0.0
1530, 0.0
1532, 0.0
1534, 0.0
1536, 0.0
1538, 0.0
1540, 0.0
1542, 0.0
1544, 0.0
1546, 0.0
1548, 0.0
1550, 0.0
1552, 0.0
1554, 0.0
1556, 0.0
1558, 0.0
1560, 0.0
1562, 0.0
1564, 0.0
1566, 0.0
1568, 0.0
1570, 0.0
1572, 0.0
1574, 0.0
1576, 0.0
1578, 0.0
1580, 0.0
1582, 0.0
1584, 0.0
1586, 0.0
1588, 0.0
1590, 0.0
1592, 0.0
1594, 0.0
1596, 0.0
1598, 0.0
1599, 0.0