File: raw data/Dataset_2/Ferroactinolite/Ferroactinolite__R060189-3__Raman__514__45__ccw__Raman_Data_Processed__13252.txt
30, 0.0
32, 0.0
34, 0.0
36, 0.0
38, 0.0
40, 0.0
42, 0.0
44, 0.0
46, 0.0
48, 0.0
50, 0.0
52, 0.0
54, 0.0
56, 0.0
58, 0.0
60, 0.0
62, 0.0
64, 0.0
66, 0.0
68, 0.0
70, 0.0
72, 0.0
74, 0.0
76, 0.0
78, 0.0
80, 0.0
82, 0.0
84, 0.0
86, 0.0
88, 0.0
90, 0.0
92, 0.0
94, 0.0
96.0, 0.000119603
98.0, 0.00100683
100.0, 0.0021385
102.0, 0.00179933
104.0, 0.00211983
106.0, 0.0120897
108.0, 0.0314567
110.0, 0.0478076
112.0, 0.0296701
114.0, 0.0166969
116.0, 0.0210227
118.0, 0.020458
120.0, 0.0103038
122.0, 0.00500927
124.0, 0.00572202
126.0, 0.0120497
128.0, 0.0150422
130.0, 0.0259055
132.0, 0.0312316
134.0, 0.0303809
136.0, 0.0380961
138.0, 0.0621264
140.0, 0.109403
142.0, 0.169038
144.0, 0.251825
146.0, 0.349212
148.0, 0.408521
150.0, 0.353662
152.0, 0.240715
154.0, 0.15841
156.0, 0.106096
158.0, 0.0845445
160.0, 0.0770604
162.0, 0.0836209
164.0, 0.111351
166.0, 0.152642
168.0, 0.216975
170.0, 0.292064
172.0, 0.351872
174.0, 0.328331
176.0, 0.255135
178.0, 0.183656
180.0, 0.134648
182.0, 0.101389
184.0, 0.0821262
186.0, 0.0766802
188.0, 0.0768672
190.0, 0.0819845
192.0, 0.0862716
194.0, 0.0948534
196.0, 0.107348
198.0, 0.1208
200.0, 0.138935
202.0, 0.16382
204.0, 0.186799
206.0, 0.201803
208.0, 0.229105
210.0, 0.271765
212.0, 0.319046
214.0, 0.362244
216.0, 0.407247
218.0, 0.418752
220.0, 0.401815
222.0, 0.364562
224.0, 0.310693
226.0, 0.25072
228.0, 0.198179
230.0, 0.151682
232.0, 0.119176
234.0, 0.0962448
236.0, 0.0763233
238.0, 0.066624
240.0, 0.0571604
242.0, 0.0504338
244.0, 0.043583
246.0, 0.038621
248.0, 0.0359003
250.0, 0.0313301
252.0, 0.0296041
254.0, 0.0289937
256.0, 0.0263099
258.0, 0.0244544
260.0, 0.0324219
262.0, 0.031493
264.0, 0.0216983
266.0, 0.0228274
268.0, 0.0208825
270.0, 0.0192683
272.0, 0.0203704
274.0, 0.0215272
276.0, 0.0248806
278.0, 0.0249115
280.0, 0.0268626
282.0, 0.0294907
284.0, 0.0311623
286.0, 0.0331004
288.0, 0.0309195
290.0, 0.0311524
292.0, 0.0292331
294.0, 0.0291122
296.0, 0.0254989
298.0, 0.0222177
300.0, 0.019469
302.0, 0.0171118
304.0, 0.0182524
306.0, 0.0171477
308.0, 0.0164656
310.0, 0.0153222
312.0, 0.0165416
314.0, 0.0190279
316.0, 0.0184303
318.0, 0.0222501
320.0, 0.0216633
322.0, 0.0262928
324.0, 0.0302734
326.0, 0.0313596
328.0, 0.0351847
330.0, 0.0339831
332.0, 0.0382598
334.0, 0.0407818
336.0, 0.0420583
338.0, 0.0461653
340.0, 0.051314
342.0, 0.0540339
344.0, 0.0563606
346.0, 0.0620389
348.0, 0.0636782
350.0, 0.0684605
352.0, 0.075926
354.0, 0.0763173
356.0, 0.0774974
358.0, 0.0777851
360.0, 0.0747117
362.0, 0.065148
364.0, 0.0629723
366.0, 0.0555468
368.0, 0.0484489
370.0, 0.0486701
372.0, 0.0451279
374.0, 0.0472054
376.0, 0.0466398
378.0, 0.0497503
380.0, 0.0492597
382.0, 0.0488958
384.0, 0.0470533
386.0, 0.0424759
388.0, 0.0395673
390.0, 0.0348737
392.0, 0.0302616
394.0, 0.022829
396.0, 0.0189375
398.0, 0.0159433
400.0, 0.0161821
402.0, 0.0121402
404.0, 0.0108632
406.0, 0.00767121
408.0, 0.0060547
410.0, 0.00342456
412.0, 0.00202346
414.0, 0.0011531
416.0, 0.000740441
418.0, 0.00181045
420.0, 0.000313459
422.0, 0.000804996
424.0, 0.00189654
426.0, 0.00396976
428.0, 0.00502602
430.0, 0.00904436
432.0, 0.00807262
434.0, 0.00434349
436.0, 0.00257612
438.0, 0.00122699
440.0, 0.00140596
442.0, 0.00277504
444.0, 0.00322252
446.0, 0.00436266
448.0, 0.00450283
450.0, 0.00406124
452.0, 0.00487869
454.0, 0.00317476
456.0, 0.00321488
458.0, 0.00335917
460.0, 0.00291863
462.0, 0.00111118
464.0, 0.00202906
466.0, 0.00256177
468.0, 0.00254077
470.0, 0.00153623
472.0, 0.000387467
474.0, 0.000989311
476.0, 0.0002124
478.0, 0.000329765
480.0, 0.00117806
482.0, 0.00199221
484.0, 0.00110009
486.0, 0.00399399
488.0, 0.00235575
490.0, 0.0017376
492.0, 0.00847066
494.0, 0.0099963
496.0, 0.0120582
498.0, 0.0139682
500.0, 0.0152529
502.0, 0.0179556
504.0, 0.0208412
506.0, 0.0208756
508.0, 0.0215589
510.0, 0.0276259
512.0, 0.0276484
514.0, 0.0315914
516.0, 0.0336705
518.0, 0.0385414
520.0, 0.0434834
522.0, 0.046968
524.0, 0.047626
526.0, 0.0465478
528.0, 0.0438326
530.0, 0.0413206
532.0, 0.0387117
534.0, 0.03625
536.0, 0.0325362
538.0, 0.0320934
540.0, 0.0323546
542.0, 0.0287499
544.0, 0.0283105
546.0, 0.0250988
548.0, 0.0239295
550.0, 0.0230755
552.0, 0.0218378
554.0, 0.0230656
556.0, 0.0207056
558.0, 0.0197931
560.0, 0.0195149
562.0, 0.0190272
564.0, 0.0172745
566.0, 0.0180262
568.0, 0.0156224
570.0, 0.0171886
572.0, 0.0149247
574.0, 0.0127392
576.0, 0.0126869
578.0, 0.0119414
580.0, 0.00796273
582.0, 0.00835272
584.0, 0.00768291
586.0, 0.00505662
588.0, 0.00476221
590.0, 0.00517428
592.0, 0.0053587
594.0, 0.00441901
596.0, 0.0067454
598.0, 0.00599419
600.0, 0.00769334
602.0, 0.00657462
604.0, 0.00898128
606.0, 0.0107295
608.0, 0.0118362
610.0, 0.0139294
612.0, 0.0141443
614.0, 0.0186379
616.0, 0.0218067
618.0, 0.0241684
620.0, 0.026489
622.0, 0.0330924
624.0, 0.0356318
626.0, 0.0415787
628.0, 0.0480326
630.0, 0.0549561
632.0, 0.0648143
634.0, 0.0765891
636.0, 0.0869589
638.0, 0.102078
640.0, 0.114355
642.0, 0.127675
644.0, 0.14691
646.0, 0.170321
648.0, 0.196046
650.0, 0.233732
652.0, 0.279596
654.0, 0.348656
656.0, 0.442759
658.0, 0.559754
660.0, 0.706996
662.0, 0.857916
664.0, 0.968699
666.0, 0.99798
668.0, 0.900771
670.0, 0.734956
672.0, 0.55922
674.0, 0.416375
676.0, 0.308534
678.0, 0.237467
680.0, 0.184588
682.0, 0.148872
684.0, 0.123441
686.0, 0.102234
688.0, 0.0845994
690.0, 0.0707639
692.0, 0.0594884
694.0, 0.0507242
696.0, 0.0431688
698.0, 0.0375143
700.0, 0.0345007
702.0, 0.027363
704.0, 0.026925
706.0, 0.0248121
708.0, 0.0193121
710.0, 0.0187609
712.0, 0.0181676
714.0, 0.0161939
716.0, 0.0148974
718.0, 0.0133271
720.0, 0.0148882
722.0, 0.016079
724.0, 0.0143464
726.0, 0.0148106
728.0, 0.0154189
730.0, 0.0175219
732.0, 0.017058
734.0, 0.0201764
736.0, 0.0188081
738.0, 0.0176751
740.0, 0.0166023
742.0, 0.0155681
744.0, 0.0147148
746.0, 0.0129189
748.0, 0.0133849
750.0, 0.0117224
752.0, 0.0103514
754.0, 0.00789872
756.0, 0.00789398
758.0, 0.00773525
760.0, 0.00793201
762.0, 0.00580901
764.0, 0.00441745
766.0, 0.0042318
768.0, 0.00665577
770.0, 0.0064664
772.0, 0.00354274
774.0, 0.00261851
776.0, 0.00381266
778.0, 0.00231539
780.0, 0.00103809
782.0, 0.000863626
784.0, 0.00143473
786.0, 0.000994354
788.0, 0.000299936
790.0, 0.0019659
792.0, 0.00335116
794.0, 0.0030227
796.0, 0.000213762
798.0, 0.000149927
800.0, 0.00240261
802.0, 0.00284942
804.0, 0.00190077
806.0, 0.000582609
808.0, 0.00149969
810.0, 0.00109703
812.0, 0.00105097
814.0, 0.00226041
816.0, 0.000173896
818.0, 0.00244813
820.0, 0.000489826
822.0, 0.00194554
824.0, 0.000505914
826.0, 0.00127133
828.0, 0.000712853
830.0, 0.000374438
832.0, 0.00190508
834.0, 0.00282477
836.0, 0.0109412
838.0, 0.00315795
840.0, 0.00188726
842.0, 0.00152108
844.0, 0.00338431
846.0, 0.00375731
848.0, 0.00190437
850.0, 0.00120683
852.0, 0.0011094
854.0, 0.00401813
856.0, 0.00567358
858.0, 0.00591818
860.0, 0.00751382
862.0, 0.00741146
864.0, 0.00602246
866.0, 0.00833984
868.0, 0.0108125
870.0, 0.010872
872.0, 0.00982718
874.0, 0.0152969
876.0, 0.0144342
878.0, 0.0169826
880.0, 0.0197061
882.0, 0.0203955
884.0, 0.0199274
886.0, 0.0245845
888.0, 0.0268991
890.0, 0.0321057
892.0, 0.0347067
894.0, 0.0409072
896.0, 0.0435386
898.0, 0.0444663
900.0, 0.047776
902.0, 0.0469582
904.0, 0.0498213
906.0, 0.053343
908.0, 0.0553763
910.0, 0.0616899
912.0, 0.0712924
914.0, 0.0787707
916.0, 0.0844847
918.0, 0.0916315
920.0, 0.103185
922.0, 0.1141
924.0, 0.118731
926.0, 0.114749
928.0, 0.108421
930.0, 0.0988286
932.0, 0.0871062
934.0, 0.0780037
936.0, 0.075912
938.0, 0.0706961
940.0, 0.0692546
942.0, 0.0675177
944.0, 0.0656085
946.0, 0.0650141
948.0, 0.064785
950.0, 0.0605458
952.0, 0.0590624
954.0, 0.0563987
956.0, 0.0560419
958.0, 0.0573514
960.0, 0.055923
962.0, 0.0557899
964.0, 0.0545341
966.0, 0.0550263
968.0, 0.0549859
970.0, 0.0525149
972.0, 0.0488675
974.0, 0.0495757
976.0, 0.0508085
978.0, 0.0492955
980.0, 0.0496926
982.0, 0.0489146
984.0, 0.0491949
986.0, 0.049378
988.0, 0.0535012
990.0, 0.0553327
992.0, 0.0550454
994.0, 0.0587775
996.0, 0.0615653
998.0, 0.0639234
1000.0, 0.0686032
1002.0, 0.0760613
1004.0, 0.081196
1006.0, 0.0873897
1008.0, 0.0940821
1010.0, 0.101025
1012.0, 0.105489
1014.0, 0.113291
1016.0, 0.112585
1018.0, 0.120627
1020.0, 0.130015
1022.0, 0.134169
1024.0, 0.140147
1026.0, 0.145304
1028.0, 0.150837
1030.0, 0.16058
1032.0, 0.169611
1034.0, 0.192204
1036.0, 0.213415
1038.0, 0.245943
1040.0, 0.27968
1042.0, 0.314928
1044.0, 0.34706
1046.0, 0.361875
1048.0, 0.355786
1050.0, 0.337855
1052.0, 0.312371
1054.0, 0.282043
1056.0, 0.264532
1058.0, 0.253612
1060.0, 0.239175
1062.0, 0.217606
1064.0, 0.185986
1066.0, 0.152214
1068.0, 0.120963
1070.0, 0.0981767
1072.0, 0.0808138
1074.0, 0.0676253
1076.0, 0.0578382
1078.0, 0.0501247
1080.0, 0.0452813
1082.0, 0.0403733
1084.0, 0.0367213
1086.0, 0.0337996
1088.0, 0.0320146
1090.0, 0.0282791
1092.0, 0.0262571
1094.0, 0.0239171
1096.0, 0.0223575
1098.0, 0.0212982
1100.0, 0.0210287
1102.0, 0.0213444
1104.0, 0.0186048
1106.0, 0.0186735
1108.0, 0.0160103
1110.0, 0.0142131
1112.0, 0.012738
1114.0, 0.0122137
1116.0, 0.0128167
1118.0, 0.0149007
1120.0, 0.0148173
1122.0, 0.0138079
1124.0, 0.0140499
1126.0, 0.0113094
1128.0, 0.0118815
1130.0, 0.0108385
1132.0, 0.00688085
1134.0, 0.00577653
1136.0, 0.00354166
1138.0, 0.00377451
1140.0, 0.00196871
1142.0, 0.00107127
1144.0, 0.000659874
1146.0, 0.00109749
1148.0, 0.00370558
1150.0, 0.0010009
1152.0, 0.000400965
1154.0, 0.0012378
1156.0, 0.000523004
1158.0, 0.00253683
1160.0, 0.00189765
1162.0, 0.000464191
1164.0, 0.000651997
1166.0, 0.000501636
1168.0, 0.00134963
1170.0, 0.000493687
1172.0, 0.00181789
1174.0, 0.000718422
1176.0, 0.000543631
1178.0, 0.000664481
1180.0, 0.00133529
1182.0, 0.00077961
1184.0, 0.00112408
1186.0, 0.000552352
1188.0, 0.000308639
1190.0, 6.57693e-05
1192.0, 0.00144924
1194.0, 0.00155655
1196.0, 0.000128774
1198.0, 0.000581499
1200.0, 0.000608255
1202.0, 0.000236024
1204.0, 0.00217651
1206.0, 0.00224808
1208.0, 0.00029861
1210.0, 0.000699199
1212.0, 0.00123891
1214.0, 0.000570124
1216.0, 0.00173495
1218.0, 0.00085048
1220.0, 0.000792845
1222.0, 0.000236275
1224.0, 0.000964216
1226.0, 0.00372907
1228.0, 0.00468102
1230.0, 0.00320934
1232.0, 0.0010084
1234.0, 0.000743951
1236.0, 0.000854792
1238.0, 0.0013518
1240.0, 0.0025325
1242.0, 0.00419884
1244.0, 0.00396857
1246.0, 0.0035527
1248.0, 0.00379228
1250.0, 0.00393861
1252.0, 0.00216874
1254.0, 0.00425791
1256.0, 0.00679349
1258.0, 0.00460982
1260.0, 0.00458553
1262.0, 0.00372404
1264.0, 0.00508108
1266.0, 0.00465008
1268.0, 0.00304513
1270.0, 0.00152389
1272.0, 0.002971
1274.0, 0.00504328
1276.0, 0.00596151
1278.0, 0.0047958
1280.0, 0.00747754
1282.0, 0.00373931
1284.0, 0.00512299
1286.0, 0.00578044
1288.0, 0.00567085
1290.0, 0.00700509
1292.0, 0.0081598
1294.0, 0.00654766
1296.0, 0.00693207
1298.0, 0.00632181
1300.0, 0.00489084
1302.0, 0.00524868
1304.0, 0.00638049
1306.0, 0.00584494
1308.0, 0.00709815
1310.0, 0.00854953
1312.0, 0.00643566
1314.0, 0.00669549
1316.0, 0.00944181
1318.0, 0.00684006
1320.0, 0.00573698
1322.0, 0.00488308
1324.0, 0.00589714
1326.0, 0.00650985
1328.0, 0.00667556
1330.0, 0.00607964
1332.0, 0.00703771
1334.0, 0.00572586
1336.0, 0.00412875
1338.0, 0.0056146
1340.0, 0.00668252
1342.0, 0.00467397
1344.0, 0.00708066
1346.0, 0.00725136
1348.0, 0.00730503
1350.0, 0.00458485
1352.0, 0.00635874
1354.0, 0.007121
1356.0, 0.00747873
1358.0, 0.0047102
1360.0, 0.005804
1362.0, 0.00578668
1364.0, 0.00479953
1366.0, 0.00299236
1368.0, 0.00417846
1370.0, 0.00543528
1372.0, 0.00300977
1374.0, 0.00354742
1376.0, 0.00415714
1378.0, 0.00195309
1380.0, 0.00517069
1382.0, 0.00486195
1384.0, 0.00369384
1386.0, 0.00252542
1388.0, 0.00524551
1390.0, 0.00539826
1392.0, 0.00336205
1394.0, 0.00328937
1396.0, 0.0027286
1398.0, 0.00294238
1400.0, 0.00386154
1402.0, 0.00412554
1404.0, 0.00297261
1406.0, 0.00161579
1408.0, 0.00135454
1410.0, 0.00194004
1412.0, 0.00269042
1414.0, 0.0038679
1416.0, 0.00363716
1418.0, 0.00223321
1420.0, 0.00447109
1422.0, 0.00486743
1424.0, 0.00340703
1426.0, 0.00033803
1428.0, 0.00414866
1430.0, 0.00428468
1432.0, 0.00259884
1434.0, 0.00118717
1436.0, 0.00304622
1438.0, 0.0033219
1440.0, 0.000681104
1442.0, 0.00103522
1444.0, 0.00186085
1446.0, 0.000677925
1448.0, 0.000929949
1450.0, 0.000381093
1452.0, 0.00182162
1454.0, 0.00129034
1456.0, 0.00122606
1458.0, 0.00284908
1460.0, 0.00232039
1462.0, 0.00411037
1464.0, 0.00318057
1466.0, 0.00200805
1468.0, 0.000350947
1470.0, 0.00134963
1472.0, 0.000901728
1474.0, 0.00152933
1476.0, 0.000782129
1478.0, 0.00196795
1480.0, 0.00319628
1482.0, 0.00377215
1484.0, 0.0018932
1486.0, 0.00231397
1488.0, 0.000838274
1490.0, 0.00315911
1492.0, 0.00342335
1494.0, 0.00524913
1496.0, 0.00444864
1498.0, 0.00384578
1500.0, 0.00243447
1502.0, 0.00328966
1504.0, 0.00480293
1506.0, 0.00138112
1508.0, 0.00355921
1510.0, 0.00515956
1512.0, 0.00474939
1514.0, 0.00490151
1516.0, 0.00309295
1518.0, 0.00383813
1520.0, 0.00369057
1522.0, 0.00477364
1524.0, 0.00415212
1526.0, 0.00359323
1528.0, 0.00422382
1530.0, 0.0035732
1532.0, 0.00344613
1534.0, 0.00471498
1536.0, 0.00539732
1538.0, 0.00503923
1540.0, 0.00366268
1542.0, 0.00273883
1544.0, 0.00475809
1546.0, 0.0047465
1548.0, 0.00171018
1550.0, 0.00512349
1552.0, 0.00496355
1554.0, 0.00793645
1556.0, 0.00809786
1558.0, 0.00398605
1560.0, 0.00311704
1562.0, 0.00342351
1564.0, 0.000827635
1566.0, 0.000606607
1568.0, 0.0025219
1570.0, 2.64247e-05
1572, 0.0
1574, 0.0
1576, 0.0
1578, 0.0
1580, 0.0
1582, 0.0
1584, 0.0
1586, 0.0
1588, 0.0
1590, 0.0
1592, 0.0
1594, 0.0
1596, 0.0
1598, 0.0
1599, 0.0