File: raw data/Dataset_2/Ferroactinolite/Ferroactinolite__R060189-4__Raman__514__90__ccw__Raman_Data_Processed__13260.txt
30, 0.0
32, 0.0
34, 0.0
36, 0.0
38, 0.0
40, 0.0
42, 0.0
44, 0.0
46, 0.0
48, 0.0
50, 0.0
52, 0.0
54, 0.0
56, 0.0
58, 0.0
60, 0.0
62, 0.0
64, 0.0
66, 0.0
68, 0.0
70, 0.0
72, 0.0
74, 0.0
76, 0.0
78, 0.0
80, 0.0
82, 0.0
84, 0.0
86, 0.0
88, 0.0
90, 0.0
92, 0.0
94, 0.0
96.0, 0.000329553
98.0, 0.00303792
100.0, 0.00767826
102.0, 0.0011602
104.0, 0.00727963
106.0, 0.0448714
108.0, 0.065134
110.0, 0.0911049
112.0, 0.0545755
114.0, 0.0342375
116.0, 0.0482506
118.0, 0.0467848
120.0, 0.0301565
122.0, 0.0214178
124.0, 0.0404314
126.0, 0.0374797
128.0, 0.0451895
130.0, 0.0599433
132.0, 0.0676578
134.0, 0.056663
136.0, 0.0620946
138.0, 0.0869641
140.0, 0.15354
142.0, 0.223168
144.0, 0.309135
146.0, 0.380108
148.0, 0.373466
150.0, 0.284492
152.0, 0.186922
154.0, 0.120876
156.0, 0.0831536
158.0, 0.0624169
160.0, 0.0594447
162.0, 0.0626896
164.0, 0.0924293
166.0, 0.127338
168.0, 0.174509
170.0, 0.227641
172.0, 0.2524
174.0, 0.223437
176.0, 0.168897
178.0, 0.122336
180.0, 0.092541
182.0, 0.0706609
184.0, 0.0620097
186.0, 0.0631393
188.0, 0.071254
190.0, 0.0842018
192.0, 0.0985113
194.0, 0.108546
196.0, 0.129681
198.0, 0.143639
200.0, 0.166962
202.0, 0.197275
204.0, 0.212615
206.0, 0.212177
208.0, 0.221238
210.0, 0.253609
212.0, 0.287194
214.0, 0.308847
216.0, 0.319189
218.0, 0.310475
220.0, 0.280706
222.0, 0.256433
224.0, 0.221351
226.0, 0.18257
228.0, 0.161276
230.0, 0.141885
232.0, 0.125438
234.0, 0.109875
236.0, 0.102303
238.0, 0.0871301
240.0, 0.0791553
242.0, 0.0716787
244.0, 0.0643705
246.0, 0.0588176
248.0, 0.0411497
250.0, 0.0366593
252.0, 0.0314943
254.0, 0.0269707
256.0, 0.0223729
258.0, 0.0209824
260.0, 0.0316383
262.0, 0.030377
264.0, 0.0108203
266.0, 0.00871514
268.0, 0.00306592
270.0, 0.00579735
272.0, 0.00281986
274.0, 0.00843529
276.0, 0.00957318
278.0, 0.0146502
280.0, 0.00766464
282.0, 0.0109977
284.0, 0.0121857
286.0, 0.00911816
288.0, 0.0115799
290.0, 0.0122949
292.0, 0.0153685
294.0, 0.0161005
296.0, 0.0122622
298.0, 0.0160909
300.0, 0.0135212
302.0, 0.0116168
304.0, 0.0138358
306.0, 0.0137964
308.0, 0.0129784
310.0, 0.0165055
312.0, 0.0200626
314.0, 0.0167883
316.0, 0.0186787
318.0, 0.0228605
320.0, 0.0277495
322.0, 0.0345276
324.0, 0.0414052
326.0, 0.0463808
328.0, 0.0497438
330.0, 0.0576796
332.0, 0.0561236
334.0, 0.0607242
336.0, 0.0679554
338.0, 0.0668749
340.0, 0.0691501
342.0, 0.0735514
344.0, 0.0825974
346.0, 0.0831407
348.0, 0.087768
350.0, 0.100637
352.0, 0.0992216
354.0, 0.107945
356.0, 0.110433
358.0, 0.115401
360.0, 0.10676
362.0, 0.0990024
364.0, 0.0904394
366.0, 0.0884807
368.0, 0.0916893
370.0, 0.0942544
372.0, 0.0962567
374.0, 0.103458
376.0, 0.113166
378.0, 0.124687
380.0, 0.128389
382.0, 0.135708
384.0, 0.128966
386.0, 0.121663
388.0, 0.113626
390.0, 0.099573
392.0, 0.0862257
394.0, 0.0775386
396.0, 0.0768392
398.0, 0.0678357
400.0, 0.0601447
402.0, 0.0514329
404.0, 0.0489078
406.0, 0.0368578
408.0, 0.0306749
410.0, 0.0256142
412.0, 0.0254588
414.0, 0.021955
416.0, 0.0155102
418.0, 0.012217
420.0, 0.0145564
422.0, 0.0158115
424.0, 0.0264219
426.0, 0.033587
428.0, 0.0526151
430.0, 0.0484178
432.0, 0.0480345
434.0, 0.0386049
436.0, 0.0223745
438.0, 0.0106843
440.0, 0.00573067
442.0, 0.00226492
444.0, 0.00539594
446.0, 0.00511788
448.0, 0.00770378
450.0, 0.00658277
452.0, 0.00658956
454.0, 0.00712289
456.0, 0.00756874
458.0, 0.00743167
460.0, 0.00937854
462.0, 0.00658398
464.0, 0.00656367
466.0, 0.0049148
468.0, 0.00163607
470.0, 0.00427736
472.0, 0.0019675
474.0, 0.000599429
476.0, 0.00546019
478.0, 0.00350087
480.0, 0.00267158
482.0, 0.00745068
484.0, 0.00976579
486.0, 0.0116874
488.0, 0.00759453
490.0, 0.0169314
492.0, 0.0217427
494.0, 0.0247771
496.0, 0.022625
498.0, 0.0320608
500.0, 0.0384978
502.0, 0.0418924
504.0, 0.047036
506.0, 0.0503679
508.0, 0.054561
510.0, 0.0639651
512.0, 0.0667819
514.0, 0.0781932
516.0, 0.0804093
518.0, 0.0924711
520.0, 0.0991236
522.0, 0.095896
524.0, 0.0949013
526.0, 0.0963914
528.0, 0.0865364
530.0, 0.0847398
532.0, 0.0809708
534.0, 0.0818896
536.0, 0.0699447
538.0, 0.0729475
540.0, 0.0659654
542.0, 0.0608835
544.0, 0.0634169
546.0, 0.0557052
548.0, 0.0614973
550.0, 0.0494494
552.0, 0.0538039
554.0, 0.0543059
556.0, 0.0502529
558.0, 0.0464976
560.0, 0.0477776
562.0, 0.052274
564.0, 0.0475636
566.0, 0.0426409
568.0, 0.0364541
570.0, 0.0421399
572.0, 0.0396947
574.0, 0.0378341
576.0, 0.0340434
578.0, 0.0267231
580.0, 0.0205352
582.0, 0.0176853
584.0, 0.016761
586.0, 0.0152874
588.0, 0.0122518
590.0, 0.00831289
592.0, 0.00585844
594.0, 0.00741545
596.0, 0.00543308
598.0, 0.0085052
600.0, 0.00878188
602.0, 0.00383835
604.0, 0.00571466
606.0, 0.0115675
608.0, 0.0130559
610.0, 0.00779218
612.0, 0.00852985
614.0, 0.0148739
616.0, 0.0116942
618.0, 0.0183841
620.0, 0.0240473
622.0, 0.0297567
624.0, 0.034923
626.0, 0.0400749
628.0, 0.0516111
630.0, 0.0512967
632.0, 0.064001
634.0, 0.0743548
636.0, 0.0899504
638.0, 0.100281
640.0, 0.112803
642.0, 0.126077
644.0, 0.143965
646.0, 0.161708
648.0, 0.191665
650.0, 0.230175
652.0, 0.29074
654.0, 0.350429
656.0, 0.449953
658.0, 0.579382
660.0, 0.721133
662.0, 0.873151
664.0, 0.978348
666.0, 0.981583
668.0, 0.901246
670.0, 0.736995
672.0, 0.576835
674.0, 0.442095
676.0, 0.342645
678.0, 0.27024
680.0, 0.215299
682.0, 0.174892
684.0, 0.149296
686.0, 0.12587
688.0, 0.106906
690.0, 0.0893363
692.0, 0.0723915
694.0, 0.0640898
696.0, 0.0530253
698.0, 0.0478374
700.0, 0.0495324
702.0, 0.0386752
704.0, 0.0393524
706.0, 0.0355108
708.0, 0.0321491
710.0, 0.0299485
712.0, 0.0319707
714.0, 0.0255621
716.0, 0.02364
718.0, 0.0176226
720.0, 0.0223806
722.0, 0.0304114
724.0, 0.0213717
726.0, 0.0307267
728.0, 0.0304533
730.0, 0.0331142
732.0, 0.0291841
734.0, 0.027544
736.0, 0.0337252
738.0, 0.0293817
740.0, 0.0246759
742.0, 0.0281371
744.0, 0.0283697
746.0, 0.0258871
748.0, 0.0254706
750.0, 0.0158057
752.0, 0.0184395
754.0, 0.0195703
756.0, 0.0170816
758.0, 0.00837347
760.0, 0.0117595
762.0, 0.0140093
764.0, 0.00993801
766.0, 0.0130377
768.0, 0.00621694
770.0, 0.00788194
772.0, 0.0070926
774.0, 0.00305548
776.0, 0.00905231
778.0, 0.00952341
780.0, 0.0113471
782.0, 0.00656178
784.0, 0.00269913
786.0, 0.00743942
788.0, 0.00198289
790.0, 0.000508345
792.0, 0.00195095
794.0, 0.00183888
796.0, 0.00338121
798.0, 0.00216998
800.0, 0.00372414
802.0, 0.00990895
804.0, 0.000672259
806.0, 0.00159495
808.0, 0.000864144
810.0, 0.00389173
812.0, 0.00276641
814.0, 0.00180903
816.0, 0.00410851
818.0, 0.00270906
820.0, 0.00298525
822.0, 0.00263635
824.0, 0.00154675
826.0, 0.00726907
828.0, 0.00337787
830.0, 0.00216148
832.0, 0.00213981
834.0, 0.0021936
836.0, 0.00533962
838.0, 0.00503482
840.0, 0.0025277
842.0, 0.00400031
844.0, 0.00751037
846.0, 0.00242226
848.0, 0.00742157
850.0, 0.00902075
852.0, 0.0116106
854.0, 0.00455901
856.0, 0.00616782
858.0, 0.00901524
860.0, 0.0121558
862.0, 0.0157797
864.0, 0.0161521
866.0, 0.0115613
868.0, 0.0200006
870.0, 0.0223527
872.0, 0.0239256
874.0, 0.0252473
876.0, 0.0228101
878.0, 0.0260185
880.0, 0.0294621
882.0, 0.0272434
884.0, 0.0301865
886.0, 0.037798
888.0, 0.0369502
890.0, 0.0445603
892.0, 0.0492751
894.0, 0.0556933
896.0, 0.0601599
898.0, 0.0607187
900.0, 0.0653095
902.0, 0.0622407
904.0, 0.0623472
906.0, 0.0707234
908.0, 0.0787983
910.0, 0.0800982
912.0, 0.0848369
914.0, 0.0868489
916.0, 0.097695
918.0, 0.104503
920.0, 0.116551
922.0, 0.128173
924.0, 0.124347
926.0, 0.120765
928.0, 0.120338
930.0, 0.102339
932.0, 0.095844
934.0, 0.0898056
936.0, 0.0821005
938.0, 0.0800288
940.0, 0.0774918
942.0, 0.0704486
944.0, 0.0762745
946.0, 0.0765152
948.0, 0.0739614
950.0, 0.071395
952.0, 0.077793
954.0, 0.0799719
956.0, 0.0816977
958.0, 0.0743177
960.0, 0.0744158
962.0, 0.0761291
964.0, 0.0762448
966.0, 0.0775071
968.0, 0.0733806
970.0, 0.0704383
972.0, 0.0708386
974.0, 0.0638035
976.0, 0.067572
978.0, 0.0690156
980.0, 0.0632766
982.0, 0.0655641
984.0, 0.064882
986.0, 0.0595384
988.0, 0.0665263
990.0, 0.0635556
992.0, 0.0672407
994.0, 0.0773393
996.0, 0.0805192
998.0, 0.08501
1000.0, 0.0965152
1002.0, 0.105126
1004.0, 0.112782
1006.0, 0.116313
1008.0, 0.126092
1010.0, 0.136213
1012.0, 0.146931
1014.0, 0.160626
1016.0, 0.171742
1018.0, 0.181014
1020.0, 0.193243
1022.0, 0.195553
1024.0, 0.193535
1026.0, 0.189641
1028.0, 0.183547
1030.0, 0.173576
1032.0, 0.171321
1034.0, 0.179015
1036.0, 0.19642
1038.0, 0.21807
1040.0, 0.238118
1042.0, 0.260993
1044.0, 0.282237
1046.0, 0.283716
1048.0, 0.280634
1050.0, 0.266259
1052.0, 0.259627
1054.0, 0.246689
1056.0, 0.241192
1058.0, 0.235926
1060.0, 0.222174
1062.0, 0.201928
1064.0, 0.172969
1066.0, 0.143187
1068.0, 0.114854
1070.0, 0.097451
1072.0, 0.081367
1074.0, 0.0627558
1076.0, 0.0580095
1078.0, 0.057008
1080.0, 0.0514293
1082.0, 0.0452977
1084.0, 0.0430415
1086.0, 0.0353128
1088.0, 0.0408539
1090.0, 0.0341416
1092.0, 0.0353639
1094.0, 0.0286071
1096.0, 0.0305747
1098.0, 0.0240566
1100.0, 0.023665
1102.0, 0.0198358
1104.0, 0.0245395
1106.0, 0.0237525
1108.0, 0.0182124
1110.0, 0.0180709
1112.0, 0.0116322
1114.0, 0.0157015
1116.0, 0.0118075
1118.0, 0.0220537
1120.0, 0.0260707
1122.0, 0.0291444
1124.0, 0.0190841
1126.0, 0.0210459
1128.0, 0.019723
1130.0, 0.0157362
1132.0, 0.00884767
1134.0, 0.00686079
1136.0, 0.00849521
1138.0, 0.00777765
1140.0, 0.00837924
1142.0, 0.00513147
1144.0, 0.0101494
1146.0, 0.00119933
1148.0, 0.00024771
1150.0, 0.00745721
1152.0, 0.00111659
1154.0, 0.00749454
1156.0, 0.00140234
1158.0, 0.00882461
1160.0, 0.0038611
1162.0, 0.00743804
1164.0, 0.00484359
1166.0, 0.00267491
1168.0, 0.00421886
1170.0, 0.00702287
1172.0, 0.00701455
1174.0, 0.00505435
1176.0, 0.0033262
1178.0, 0.00451654
1180.0, 0.00391523
1182.0, 0.00223757
1184.0, 0.00648875
1186.0, 0.0115716
1188.0, 0.0010989
1190.0, 0.00161462
1192.0, 0.003256
1194.0, 0.00467092
1196.0, 0.0104477
1198.0, 0.00793362
1200.0, 0.00589968
1202.0, 0.00222094
1204.0, 0.00177529
1206.0, 0.00466625
1208.0, 0.00050883
1210.0, 0.0108817
1212.0, 0.000439046
1214.0, 0.00586771
1216.0, 0.00363077
1218.0, 0.00366695
1220.0, 0.00561652
1222.0, 0.0151912
1224.0, 0.00199461
1226.0, 0.00280407
1228.0, 0.00384906
1230.0, 0.00693563
1232.0, 0.00334978
1234.0, 0.00942026
1236.0, 0.0131271
1238.0, 0.00544356
1240.0, 0.00426085
1242.0, 0.0076672
1244.0, 0.00751038
1246.0, 0.0153877
1248.0, 0.00548784
1250.0, 0.00803177
1252.0, 0.00821569
1254.0, 0.0119912
1256.0, 0.0158374
1258.0, 0.0131365
1260.0, 0.0114389
1262.0, 0.00616501
1264.0, 0.0156284
1266.0, 0.0163235
1268.0, 0.0123013
1270.0, 0.0175364
1272.0, 0.0110515
1274.0, 0.0142695
1276.0, 0.0146342
1278.0, 0.0106524
1280.0, 0.0129287
1282.0, 0.0180973
1284.0, 0.0224633
1286.0, 0.0187226
1288.0, 0.0184532
1290.0, 0.0153345
1292.0, 0.019731
1294.0, 0.0207623
1296.0, 0.0215583
1298.0, 0.0133475
1300.0, 0.0219029
1302.0, 0.0214075
1304.0, 0.0231645
1306.0, 0.0229735
1308.0, 0.0257729
1310.0, 0.0221994
1312.0, 0.0220091
1314.0, 0.0233517
1316.0, 0.0238501
1318.0, 0.0170314
1320.0, 0.0181402
1322.0, 0.0187893
1324.0, 0.0210536
1326.0, 0.022156
1328.0, 0.0184195
1330.0, 0.0219865
1332.0, 0.0212898
1334.0, 0.0203313
1336.0, 0.0253463
1338.0, 0.024895
1340.0, 0.0269132
1342.0, 0.0274712
1344.0, 0.0248685
1346.0, 0.0181625
1348.0, 0.0224227
1350.0, 0.0246839
1352.0, 0.0228983
1354.0, 0.0257751
1356.0, 0.0178374
1358.0, 0.0226918
1360.0, 0.0243998
1362.0, 0.0230361
1364.0, 0.0208227
1366.0, 0.018466
1368.0, 0.0197409
1370.0, 0.0201993
1372.0, 0.0283274
1374.0, 0.0203896
1376.0, 0.0135223
1378.0, 0.0220705
1380.0, 0.022647
1382.0, 0.0200057
1384.0, 0.0173932
1386.0, 0.0131449
1388.0, 0.0167563
1390.0, 0.0127823
1392.0, 0.0147802
1394.0, 0.0164985
1396.0, 0.0102807
1398.0, 0.00976399
1400.0, 0.0154407
1402.0, 0.015296
1404.0, 0.0185205
1406.0, 0.0136128
1408.0, 0.0125376
1410.0, 0.0106052
1412.0, 0.00440509
1414.0, 0.00732623
1416.0, 0.0073788
1418.0, 0.00624919
1420.0, 0.00120814
1422.0, 0.00503051
1424.0, 0.0082526
1426.0, 0.00232469
1428.0, 0.00344972
1430.0, 0.00206504
1432.0, 0.00182218
1434.0, 0.000576388
1436.0, 0.00144157
1438.0, 0.000695921
1440.0, 0.00352785
1442.0, 0.00693067
1444.0, 0.00608472
1446.0, 0.00253864
1448.0, 0.00127781
1450.0, 0.0112359
1452.0, 0.000915243
1454.0, 0.00335016
1456.0, 0.00276768
1458.0, 0.00240473
1460.0, 0.00262261
1462.0, 0.00385173
1464.0, 0.000730559
1466.0, 0.00310779
1468.0, 0.00460072
1470.0, 0.00272706
1472.0, 0.0036109
1474.0, 0.00716024
1476.0, 0.00623304
1478.0, 0.00535035
1480.0, 0.0088088
1482.0, 0.00676535
1484.0, 0.00722888
1486.0, 0.00821574
1488.0, 0.00877633
1490.0, 0.00880977
1492.0, 0.0157721
1494.0, 0.0117309
1496.0, 0.0188474
1498.0, 0.0147622
1500.0, 0.00911041
1502.0, 0.0168495
1504.0, 0.00727112
1506.0, 0.00807857
1508.0, 0.0164804
1510.0, 0.0121719
1512.0, 0.0125222
1514.0, 0.0164803
1516.0, 0.0153322
1518.0, 0.0132068
1520.0, 0.0100573
1522.0, 0.00666553
1524.0, 0.00503229
1526.0, 0.017149
1528.0, 0.0172086
1530.0, 0.01528
1532.0, 0.0177357
1534.0, 0.014586
1536.0, 0.0150229
1538.0, 0.0142391
1540.0, 0.00802277
1542.0, 0.0174385
1544.0, 0.0224011
1546.0, 0.00727458
1548.0, 0.0160043
1550.0, 0.0136887
1552.0, 0.00469677
1554.0, 0.0224992
1556.0, 0.0158278
1558.0, 0.0121315
1560.0, 0.00638611
1562.0, 0.00312771
1564.0, 0.00699724
1566.0, 0.00628269
1568.0, 0.000585446
1570.0, 2.18661e-05
1572, 0.0
1574, 0.0
1576, 0.0
1578, 0.0
1580, 0.0
1582, 0.0
1584, 0.0
1586, 0.0
1588, 0.0
1590, 0.0
1592, 0.0
1594, 0.0
1596, 0.0
1598, 0.0
1599, 0.0