File: raw data/Dataset_2/Ferroactinolite/Ferroactinolite__R060189__Raman__532__0__unoriented__Raman_Data_Processed__33235.txt
30, 0.0
32, 0.0
34, 0.0
36, 0.0
38, 0.0
40, 0.0
42, 0.0
44, 0.0
46, 0.0
48, 0.0
50, 0.0
52, 0.0
54, 0.0
56, 0.0
58, 0.0
60, 0.0
62, 0.0
64, 0.0
66, 0.0
68, 0.0
70, 0.0
72, 0.0
74, 0.0
76, 0.0
78, 0.0
80, 0.0
82, 0.0
84, 0.0
86, 0.0
88, 0.0
90, 0.0
92, 0.0
94, 0.0
96, 0.0
98, 0.0
100, 0.0
102, 0.0
104, 0.0
106, 0.0
108, 0.0
110, 0.0
112, 0.0
114, 0.0
116, 0.0
118, 0.0
120, 0.0
122, 0.0
124, 0.0
126, 0.0
128, 0.0
130, 0.0
132, 0.0
134, 0.0
136, 0.0
138, 0.0
140, 0.0
142, 0.0
144, 0.0
146.0, 0.0145559
148.0, 0.0838626
150.0, 0.0856749
152.0, 0.0386618
154.0, 0.0156573
156.0, 0.00135846
158.0, 0.00304148
160.0, 0.00517689
162.0, 0.0139655
164.0, 0.0414019
166.0, 0.0804701
168.0, 0.119643
170.0, 0.172926
172.0, 0.224346
174.0, 0.230066
176.0, 0.166996
178.0, 0.0833885
180.0, 0.0351321
182.0, 0.0111742
184.0, 0.00244971
186.0, 0.00468023
188.0, 0.00132972
190.0, 0.00426012
192.0, 0.01646
194.0, 0.0309836
196.0, 0.0426017
198.0, 0.0694118
200.0, 0.0892458
202.0, 0.114818
204.0, 0.141776
206.0, 0.174697
208.0, 0.207891
210.0, 0.241892
212.0, 0.270244
214.0, 0.300189
216.0, 0.318698
218.0, 0.327507
220.0, 0.319431
222.0, 0.294337
224.0, 0.25464
226.0, 0.212365
228.0, 0.172809
230.0, 0.141433
232.0, 0.111783
234.0, 0.0926821
236.0, 0.0769078
238.0, 0.0662285
240.0, 0.0571645
242.0, 0.0449103
244.0, 0.0322161
246.0, 0.0237328
248.0, 0.018383
250.0, 0.0116006
252.0, 0.00837885
254.0, 0.0052792
256.0, 0.00705465
258.0, 0.00320552
260.0, 0.00190748
262.0, 0.00132511
264.0, 0.000784834
266.0, 0.00305724
268.0, 0.0024696
270.0, 0.00135107
272.0, 0.00156863
274.0, 0.00176155
276.0, 0.00284689
278.0, 0.000957211
280.0, 0.00518807
282.0, 0.0030438
284.0, 0.00686648
286.0, 0.00594021
288.0, 0.00692114
290.0, 0.00662036
292.0, 0.00814723
294.0, 0.00646984
296.0, 0.00411822
298.0, 0.00256187
300.0, 0.00292503
302.0, 0.00068368
304.0, 0.000786656
306.0, 0.000213502
308.0, 0.00063635
310.0, 0.00048703
312.0, 0.0059204
314.0, 0.0049107
316.0, 0.00734948
318.0, 0.011129
320.0, 0.0181319
322.0, 0.0211554
324.0, 0.0297726
326.0, 0.0352783
328.0, 0.0436683
330.0, 0.0492008
332.0, 0.0537591
334.0, 0.0527232
336.0, 0.0562383
338.0, 0.0541996
340.0, 0.0598533
342.0, 0.0640819
344.0, 0.0652037
346.0, 0.0726002
348.0, 0.0799573
350.0, 0.0855677
352.0, 0.0914646
354.0, 0.092068
356.0, 0.095802
358.0, 0.0923453
360.0, 0.0913705
362.0, 0.0881601
364.0, 0.0796539
366.0, 0.0709757
368.0, 0.067836
370.0, 0.0677638
372.0, 0.0659191
374.0, 0.0759159
376.0, 0.0811891
378.0, 0.0871693
380.0, 0.0924239
382.0, 0.0926912
384.0, 0.0920541
386.0, 0.084862
388.0, 0.0778801
390.0, 0.0734338
392.0, 0.0674594
394.0, 0.0607393
396.0, 0.0532413
398.0, 0.0504965
400.0, 0.0428314
402.0, 0.0391855
404.0, 0.0346519
406.0, 0.0292618
408.0, 0.0247615
410.0, 0.0187808
412.0, 0.0166932
414.0, 0.0134958
416.0, 0.012893
418.0, 0.0101114
420.0, 0.00838088
422.0, 0.0090603
424.0, 0.0131664
426.0, 0.0170843
428.0, 0.023131
430.0, 0.0283056
432.0, 0.0324524
434.0, 0.028885
436.0, 0.0217817
438.0, 0.0138009
440.0, 0.00655152
442.0, 0.00172359
444.0, 0.0029659
446.0, 0.00316561
448.0, 0.00197338
450.0, 0.00260108
452.0, 0.00225902
454.0, 0.00344867
456.0, 0.000192538
458.0, 0.000119091
460.0, 0.000593297
462.0, 0.00202197
464.0, 0.00205821
466.0, 0.00633395
468.0, 0.00591909
470.0, 0.00492282
472.0, 0.00670621
474.0, 0.00987388
476.0, 0.00988651
478.0, 0.0113171
480.0, 0.0113683
482.0, 0.0124871
484.0, 0.0165789
486.0, 0.0173484
488.0, 0.0162485
490.0, 0.0208658
492.0, 0.02154
494.0, 0.0290287
496.0, 0.0286348
498.0, 0.0361276
500.0, 0.0400566
502.0, 0.0430487
504.0, 0.0455516
506.0, 0.0440822
508.0, 0.0480059
510.0, 0.0499722
512.0, 0.052587
514.0, 0.0577966
516.0, 0.0591487
518.0, 0.0643873
520.0, 0.0650408
522.0, 0.071121
524.0, 0.0708466
526.0, 0.0667714
528.0, 0.0597278
530.0, 0.0515509
532.0, 0.0441815
534.0, 0.0425307
536.0, 0.0373507
538.0, 0.0353106
540.0, 0.0341015
542.0, 0.0325122
544.0, 0.0316793
546.0, 0.0297442
548.0, 0.0258317
550.0, 0.0253262
552.0, 0.0232989
554.0, 0.0201148
556.0, 0.0214084
558.0, 0.0229265
560.0, 0.0172673
562.0, 0.0195594
564.0, 0.0175013
566.0, 0.0153802
568.0, 0.0147186
570.0, 0.0118128
572.0, 0.00944749
574.0, 0.00883757
576.0, 0.00386599
578.0, 0.00439996
580.0, 0.00213179
582.0, 0.00145546
584.0, 0.000991054
586.0, 0.000396792
588.0, 0.00204663
590.0, 0.00161222
592.0, 0.00261866
594.0, 0.002053
596.0, 0.000470444
598.0, 0.000249584
600.0, 0.000184251
602.0, 0.000690189
604.0, 0.0010192
606.0, 0.00406177
608.0, 0.00663617
610.0, 0.00699586
612.0, 0.00853196
614.0, 0.0113983
616.0, 0.0124805
618.0, 0.0184306
620.0, 0.0203284
622.0, 0.0283186
624.0, 0.0353434
626.0, 0.0425371
628.0, 0.0517488
630.0, 0.0610878
632.0, 0.0690824
634.0, 0.0844434
636.0, 0.0939142
638.0, 0.107095
640.0, 0.120803
642.0, 0.135469
644.0, 0.152332
646.0, 0.179108
648.0, 0.209605
650.0, 0.255605
652.0, 0.320616
654.0, 0.399761
656.0, 0.493326
658.0, 0.602414
660.0, 0.73084
662.0, 0.853347
664.0, 0.959872
666.0, 0.999984
668.0, 0.939019
670.0, 0.777126
672.0, 0.576933
674.0, 0.408333
676.0, 0.294697
678.0, 0.215538
680.0, 0.16724
682.0, 0.134704
684.0, 0.107947
686.0, 0.0848534
688.0, 0.0660701
690.0, 0.0530235
692.0, 0.0413476
694.0, 0.0314302
696.0, 0.0230766
698.0, 0.0169967
700.0, 0.0128536
702.0, 0.00649115
704.0, 0.00496366
706.0, 0.00122462
708.0, 0.00285233
710.0, 0.000645652
712.0, 0.00223176
714.0, 0.00185485
716.0, 0.000396644
718.0, 0.00134242
720.0, 0.00205417
722.0, 0.00116703
724.0, 0.00347543
726.0, 0.00500247
728.0, 0.0084291
730.0, 0.0138421
732.0, 0.0157677
734.0, 0.0203267
736.0, 0.0210427
738.0, 0.0217904
740.0, 0.0198847
742.0, 0.0207786
744.0, 0.0191526
746.0, 0.0171051
748.0, 0.0135883
750.0, 0.0102908
752.0, 0.00772207
754.0, 0.00622908
756.0, 0.00350775
758.0, 0.00389169
760.0, 0.00412863
762.0, 0.00352593
764.0, 0.0028913
766.0, 0.00105168
768.0, 0.00318815
770.0, 0.00288035
772.0, 0.000430687
774.0, 0.00246259
776.0, 0.00259708
778.0, 0.00112308
780.0, 0.00310065
782.0, 0.00030856
784.0, 0.000277242
786.0, 0.000806991
788.0, 0.00118978
790.0, 0.00192224
792.0, 0.000122351
794.0, 0.000706188
796.0, 0.00101826
798.0, 0.000971531
800.0, 0.000446605
802.0, 0.00156577
804.0, 0.00201406
806.0, 0.00297197
808.0, 0.00294023
810.0, 0.00151725
812.0, 0.00422342
814.0, 0.00128402
816.0, 0.00176465
818.0, 0.00386428
820.0, 0.00432751
822.0, 0.00367019
824.0, 0.00402275
826.0, 0.00142309
828.0, 0.00403104
830.0, 0.00490314
832.0, 0.00371812
834.0, 0.00559244
836.0, 0.00596946
838.0, 0.00536595
840.0, 0.00454481
842.0, 0.00431777
844.0, 0.00356121
846.0, 0.00166169
848.0, 0.00243805
850.0, 0.00331384
852.0, 0.00281631
854.0, 0.000925673
856.0, 0.00204807
858.0, 0.000746381
860.0, 0.000828056
862.0, 0.00105811
864.0, 0.000557013
866.0, 0.000940287
868.0, 0.000185992
870.0, 0.000348053
872.0, 0.000716572
874.0, 0.000210955
876.0, 0.000537137
878.0, 0.00195096
880.0, 0.00251196
882.0, 0.002011
884.0, 0.00181185
886.0, 0.00572125
888.0, 0.00561506
890.0, 0.00673437
892.0, 0.011145
894.0, 0.00967958
896.0, 0.0124779
898.0, 0.0136947
900.0, 0.0129383
902.0, 0.0152069
904.0, 0.0164801
906.0, 0.0205506
908.0, 0.019109
910.0, 0.0227026
912.0, 0.028726
914.0, 0.0348224
916.0, 0.0433897
918.0, 0.0523659
920.0, 0.0627174
922.0, 0.0709699
924.0, 0.0785823
926.0, 0.0802566
928.0, 0.0754652
930.0, 0.0677841
932.0, 0.0565186
934.0, 0.0477115
936.0, 0.0419332
938.0, 0.0358157
940.0, 0.0328146
942.0, 0.031443
944.0, 0.0274342
946.0, 0.0218931
948.0, 0.0176505
950.0, 0.0134024
952.0, 0.0122336
954.0, 0.0116112
956.0, 0.00904135
958.0, 0.00737079
960.0, 0.0060536
962.0, 0.00671453
964.0, 0.00349704
966.0, 0.00310213
968.0, 0.00231675
970.0, 0.00281111
972.0, 0.00356949
974.0, 0.000888115
976.0, 0.00210146
978.0, 0.00022037
980.0, 0.000526321
982.0, 0.00198249
984.0, 0.000257485
986.0, 2.9285e-05
988.0, 0.00113585
990.0, 0.00439857
992.0, 0.00818404
994.0, 0.00778655
996.0, 0.0144883
998.0, 0.0182395
1000.0, 0.0245417
1002.0, 0.0316076
1004.0, 0.0371817
1006.0, 0.0479213
1008.0, 0.0558511
1010.0, 0.0654342
1012.0, 0.0768242
1014.0, 0.0834357
1016.0, 0.0923974
1018.0, 0.0989711
1020.0, 0.105042
1022.0, 0.114106
1024.0, 0.119327
1026.0, 0.122339
1028.0, 0.118157
1030.0, 0.117677
1032.0, 0.117373
1034.0, 0.124876
1036.0, 0.142544
1038.0, 0.160873
1040.0, 0.184019
1042.0, 0.213284
1044.0, 0.233151
1046.0, 0.247677
1048.0, 0.254854
1050.0, 0.246922
1052.0, 0.227868
1054.0, 0.209363
1056.0, 0.190896
1058.0, 0.184557
1060.0, 0.184837
1062.0, 0.179105
1064.0, 0.160493
1066.0, 0.126614
1068.0, 0.0911721
1070.0, 0.0647146
1072.0, 0.0418695
1074.0, 0.0346015
1076.0, 0.0261798
1078.0, 0.0176138
1080.0, 0.0132501
1082.0, 0.0126286
1084.0, 0.00716394
1086.0, 0.00548156
1088.0, 0.00689371
1090.0, 0.00259961
1092.0, 0.00386775
1094.0, 0.0017505
1096.0, 0.00215597
1098.0, 0.000734041
1100.0, 0.00120084
1102.0, 0.000494472
1104.0, 0.00338347
1106.0, 0.0013995
1108.0, 0.000997447
1110.0, 0.00285377
1112.0, 0.0011156
1114.0, 0.0035868
1116.0, 0.00107267
1118.0, 0.000972481
1120.0, 0.00138064
1122.0, 0.00218105
1124.0, 0.00369508
1126.0, 0.000439805
1128.0, 0.00261827
1130.0, 0.00043525
1132.0, 0.000802268
1134.0, 0.00163783
1136.0, 0.000438838
1138.0, 0.000395995
1140.0, 0.00132489
1142.0, 0.00174327
1144.0, 0.00227412
1146.0, 0.00186364
1148.0, 0.00452215
1150.0, 0.00132084
1152.0, 0.00145383
1154.0, 0.00235514
1156.0, 0.00409958
1158.0, 0.000175141
1160.0, 0.00359549
1162.0, 0.00300054
1164.0, 0.00229094
1166.0, 0.00325815
1168.0, 0.0020961
1170.0, 0.00251001
1172.0, 0.00400384
1174.0, 0.00317469
1176.0, 0.00176966
1178.0, 0.00278492
1180.0, 0.00671391
1182.0, 0.00506627
1184.0, 0.00575035
1186.0, 0.00412127
1188.0, 0.00385542
1190.0, 0.00480658
1192.0, 0.00481366
1194.0, 0.00653541
1196.0, 0.002365
1198.0, 0.00353742
1200.0, 0.00365842
1202.0, 0.00555256
1204.0, 0.00483373
1206.0, 0.00509907
1208.0, 0.00379947
1210.0, 0.00549791
1212.0, 0.00127735
1214.0, 0.00306059
1216.0, 0.00304654
1218.0, 0.00165339
1220.0, 0.00328512
1222.0, 0.00207599
1224.0, 0.00487624
1226.0, 0.00289712
1228.0, 0.00184183
1230.0, 0.0022276
1232.0, 0.00103785
1234.0, 0.00127863
1236.0, 0.002935
1238.0, 0.00366096
1240.0, 0.00188368
1242.0, 0.00341005
1244.0, 0.00250598
1246.0, 0.0016665
1248.0, 0.00364726
1250.0, 0.00399003
1252.0, 0.00382754
1254.0, 0.00127148
1256.0, 0.00149857
1258.0, 0.00177099
1260.0, 0.00280988
1262.0, 0.00252203
1264.0, 0.00139936
1266.0, 0.00314122
1268.0, 0.000841422
1270.0, 0.00334966
1272.0, 0.00284847
1274.0, 0.002771
1276.0, 0.00325189
1278.0, 0.00238865
1280.0, 0.00347886
1282.0, 0.000940432
1284.0, 0.00230521
1286.0, 0.00161035
1288.0, 0.00250416
1290.0, 0.00200568
1292.0, 0.00336271
1294.0, 0.000900933
1296.0, 0.00361866
1298.0, 0.00390322
1300.0, 0.00254022
1302.0, 0.00413708
1304, 0.0
1306, 0.0
1308, 0.0
1310, 0.0
1312, 0.0
1314, 0.0
1316, 0.0
1318, 0.0
1320, 0.0
1322, 0.0
1324, 0.0
1326, 0.0
1328, 0.0
1330, 0.0
1332, 0.0
1334, 0.0
1336, 0.0
1338, 0.0
1340, 0.0
1342, 0.0
1344, 0.0
1346, 0.0
1348, 0.0
1350, 0.0
1352, 0.0
1354, 0.0
1356, 0.0
1358, 0.0
1360, 0.0
1362, 0.0
1364, 0.0
1366, 0.0
1368, 0.0
1370, 0.0
1372, 0.0
1374, 0.0
1376, 0.0
1378, 0.0
1380, 0.0
1382, 0.0
1384, 0.0
1386, 0.0
1388, 0.0
1390, 0.0
1392, 0.0
1394, 0.0
1396, 0.0
1398, 0.0
1400, 0.0
1402, 0.0
1404, 0.0
1406, 0.0
1408, 0.0
1410, 0.0
1412, 0.0
1414, 0.0
1416, 0.0
1418, 0.0
1420, 0.0
1422, 0.0
1424, 0.0
1426, 0.0
1428, 0.0
1430, 0.0
1432, 0.0
1434, 0.0
1436, 0.0
1438, 0.0
1440, 0.0
1442, 0.0
1444, 0.0
1446, 0.0
1448, 0.0
1450, 0.0
1452, 0.0
1454, 0.0
1456, 0.0
1458, 0.0
1460, 0.0
1462, 0.0
1464, 0.0
1466, 0.0
1468, 0.0
1470, 0.0
1472, 0.0
1474, 0.0
1476, 0.0
1478, 0.0
1480, 0.0
1482, 0.0
1484, 0.0
1486, 0.0
1488, 0.0
1490, 0.0
1492, 0.0
1494, 0.0
1496, 0.0
1498, 0.0
1500, 0.0
1502, 0.0
1504, 0.0
1506, 0.0
1508, 0.0
1510, 0.0
1512, 0.0
1514, 0.0
1516, 0.0
1518, 0.0
1520, 0.0
1522, 0.0
1524, 0.0
1526, 0.0
1528, 0.0
1530, 0.0
1532, 0.0
1534, 0.0
1536, 0.0
1538, 0.0
1540, 0.0
1542, 0.0
1544, 0.0
1546, 0.0
1548, 0.0
1550, 0.0
1552, 0.0
1554, 0.0
1556, 0.0
1558, 0.0
1560, 0.0
1562, 0.0
1564, 0.0
1566, 0.0
1568, 0.0
1570, 0.0
1572, 0.0
1574, 0.0
1576, 0.0
1578, 0.0
1580, 0.0
1582, 0.0
1584, 0.0
1586, 0.0
1588, 0.0
1590, 0.0
1592, 0.0
1594, 0.0
1596, 0.0
1598, 0.0
1599, 0.0