File: raw data/Dataset_2/Ferroactinolite/Ferroactinolite__R060189-4__Raman__514__0__ccw__Raman_Data_Processed__13256.txt
30, 0.0
32, 0.0
34, 0.0
36, 0.0
38, 0.0
40, 0.0
42, 0.0
44, 0.0
46, 0.0
48, 0.0
50, 0.0
52, 0.0
54, 0.0
56, 0.0
58, 0.0
60, 0.0
62, 0.0
64, 0.0
66, 0.0
68, 0.0
70, 0.0
72, 0.0
74, 0.0
76, 0.0
78, 0.0
80, 0.0
82, 0.0
84, 0.0
86, 0.0
88, 0.0
90, 0.0
92, 0.0
94, 0.0
96.0, 3.57046e-05
98.0, 0.00315415
100.0, 0.0150054
102.0, 0.020785
104.0, 0.040735
106.0, 0.101342
108.0, 0.184309
110.0, 0.259119
112.0, 0.22531
114.0, 0.23643
116.0, 0.24058
118.0, 0.198808
120.0, 0.135257
122.0, 0.098228
124.0, 0.0838356
126.0, 0.045855
128.0, 0.0507948
130.0, 0.0578045
132.0, 0.0627155
134.0, 0.0598064
136.0, 0.0618617
138.0, 0.0951008
140.0, 0.136057
142.0, 0.155219
144.0, 0.172168
146.0, 0.185436
148.0, 0.171645
150.0, 0.123095
152.0, 0.110354
154.0, 0.0808667
156.0, 0.0763206
158.0, 0.0844031
160.0, 0.0989798
162.0, 0.10999
164.0, 0.151094
166.0, 0.195415
168.0, 0.251643
170.0, 0.298102
172.0, 0.304156
174.0, 0.288592
176.0, 0.239261
178.0, 0.194743
180.0, 0.158388
182.0, 0.114666
184.0, 0.111289
186.0, 0.103381
188.0, 0.114357
190.0, 0.117238
192.0, 0.12641
194.0, 0.146121
196.0, 0.152309
198.0, 0.151613
200.0, 0.158024
202.0, 0.18247
204.0, 0.18121
206.0, 0.144719
208.0, 0.132505
210.0, 0.13249
212.0, 0.147923
214.0, 0.168037
216.0, 0.157684
218.0, 0.143493
220.0, 0.133176
222.0, 0.144335
224.0, 0.133554
226.0, 0.0823565
228.0, 0.0595892
230.0, 0.0533595
232.0, 0.0496319
234.0, 0.0334233
236.0, 0.0252176
238.0, 0.0268288
240.0, 0.0164626
242.0, 0.0159467
244.0, 0.00576073
246.0, 0.00529566
248.0, 0.00140386
250.0, 0.00224567
252.0, 0.0111591
254.0, 0.00374405
256.0, 0.00490301
258.0, 0.00621437
260.0, 0.0417145
262.0, 0.0167955
264.0, 0.00971705
266.0, 0.00853945
268.0, 0.00528906
270.0, 0.0058174
272.0, 0.00330949
274.0, 0.0023341
276.0, 0.00402145
278.0, 0.00469415
280.0, 0.0123043
282.0, 0.00503266
284.0, 0.007613
286.0, 0.00533598
288.0, 0.00513569
290.0, 0.0106659
292.0, 0.00601102
294.0, 0.0144981
296.0, 0.00385673
298.0, 0.00951024
300.0, 0.000854657
302.0, 0.00325881
304.0, 0.0031938
306.0, 0.00776234
308.0, 0.00992403
310.0, 0.00215467
312.0, 0.00623267
314.0, 0.00702045
316.0, 0.0138674
318.0, 0.00171812
320.0, 0.0147059
322.0, 0.0241569
324.0, 0.0201469
326.0, 0.0304137
328.0, 0.0244654
330.0, 0.0286316
332.0, 0.0333417
334.0, 0.0457263
336.0, 0.058956
338.0, 0.0663124
340.0, 0.0830714
342.0, 0.0929766
344.0, 0.10539
346.0, 0.118782
348.0, 0.137847
350.0, 0.149771
352.0, 0.157145
354.0, 0.174332
356.0, 0.18102
358.0, 0.186244
360.0, 0.185973
362.0, 0.176407
364.0, 0.162675
366.0, 0.16285
368.0, 0.170022
370.0, 0.173166
372.0, 0.174874
374.0, 0.185577
376.0, 0.192394
378.0, 0.201595
380.0, 0.201093
382.0, 0.204529
384.0, 0.183209
386.0, 0.167552
388.0, 0.160982
390.0, 0.136939
392.0, 0.129725
394.0, 0.105891
396.0, 0.098056
398.0, 0.077777
400.0, 0.0764516
402.0, 0.0697546
404.0, 0.0489803
406.0, 0.0490864
408.0, 0.033473
410.0, 0.0296296
412.0, 0.0239897
414.0, 0.0233814
416.0, 0.011605
418.0, 0.00812854
420.0, 0.014559
422.0, 0.012089
424.0, 0.0068364
426.0, 0.00915437
428.0, 0.00319652
430.0, 0.00409132
432.0, 0.000364663
434.0, 0.00621337
436.0, 0.00349102
438.0, 0.00509861
440.0, 0.00535161
442.0, 0.00832833
444.0, 0.000667
446.0, 0.00143191
448.0, 0.0044344
450.0, 0.00252635
452.0, 0.00513714
454.0, 0.00975768
456.0, 0.00695
458.0, 0.0059175
460.0, 0.00673253
462.0, 0.000639935
464.0, 0.00164362
466.0, 0.00231725
468.0, 0.00981011
470.0, 0.015154
472.0, 0.00652631
474.0, 0.000784129
476.0, 0.00254981
478.0, 0.0120916
480.0, 0.0110014
482.0, 0.0203692
484.0, 0.01553
486.0, 0.0164483
488.0, 0.0231297
490.0, 0.0242791
492.0, 0.0292488
494.0, 0.0352926
496.0, 0.032791
498.0, 0.0428423
500.0, 0.0482063
502.0, 0.0545705
504.0, 0.0464399
506.0, 0.0513251
508.0, 0.0548622
510.0, 0.0655479
512.0, 0.0615118
514.0, 0.0745856
516.0, 0.0669179
518.0, 0.0800263
520.0, 0.0718325
522.0, 0.0777172
524.0, 0.0751687
526.0, 0.076955
528.0, 0.0853886
530.0, 0.0950937
532.0, 0.0879106
534.0, 0.0901447
536.0, 0.0900937
538.0, 0.0935892
540.0, 0.0835836
542.0, 0.0907694
544.0, 0.0794769
546.0, 0.0751035
548.0, 0.0755059
550.0, 0.0701788
552.0, 0.0768081
554.0, 0.075941
556.0, 0.0738734
558.0, 0.0708883
560.0, 0.0660112
562.0, 0.0670675
564.0, 0.0717129
566.0, 0.0640501
568.0, 0.052388
570.0, 0.0660872
572.0, 0.0579673
574.0, 0.0582914
576.0, 0.0490256
578.0, 0.0393523
580.0, 0.0416791
582.0, 0.0380431
584.0, 0.0262814
586.0, 0.0264389
588.0, 0.0080881
590.0, 0.0172918
592.0, 0.019207
594.0, 0.0235079
596.0, 0.0131562
598.0, 0.0119083
600.0, 0.010142
602.0, 0.0169624
604.0, 0.0264861
606.0, 0.0204287
608.0, 0.0236633
610.0, 0.0187253
612.0, 0.0194326
614.0, 0.0234801
616.0, 0.0223843
618.0, 0.031371
620.0, 0.0298408
622.0, 0.0355378
624.0, 0.0355002
626.0, 0.0376888
628.0, 0.0509989
630.0, 0.05418
632.0, 0.0602256
634.0, 0.0696236
636.0, 0.087815
638.0, 0.0978417
640.0, 0.112281
642.0, 0.123494
644.0, 0.145693
646.0, 0.17154
648.0, 0.201313
650.0, 0.235884
652.0, 0.288415
654.0, 0.370664
656.0, 0.473789
658.0, 0.602316
660.0, 0.72434
662.0, 0.881957
664.0, 0.971011
666.0, 0.998758
668.0, 0.902928
670.0, 0.745679
672.0, 0.578651
674.0, 0.448178
676.0, 0.344488
678.0, 0.276051
680.0, 0.215187
682.0, 0.180959
684.0, 0.145708
686.0, 0.119435
688.0, 0.103324
690.0, 0.0942265
692.0, 0.0850368
694.0, 0.0773494
696.0, 0.068428
698.0, 0.061018
700.0, 0.0508599
702.0, 0.0494081
704.0, 0.0483041
706.0, 0.047543
708.0, 0.0389138
710.0, 0.0446223
712.0, 0.0368566
714.0, 0.0428777
716.0, 0.0355717
718.0, 0.0341495
720.0, 0.0349781
722.0, 0.0424877
724.0, 0.0421908
726.0, 0.0382524
728.0, 0.0435536
730.0, 0.0451114
732.0, 0.0585671
734.0, 0.0664395
736.0, 0.0568668
738.0, 0.057097
740.0, 0.0581839
742.0, 0.0541505
744.0, 0.0661704
746.0, 0.0557541
748.0, 0.0463594
750.0, 0.0310295
752.0, 0.0382388
754.0, 0.0265669
756.0, 0.0283427
758.0, 0.0220413
760.0, 0.0269704
762.0, 0.0257955
764.0, 0.0227027
766.0, 0.0209744
768.0, 0.024965
770.0, 0.0165829
772.0, 0.00759219
774.0, 0.015639
776.0, 0.0118885
778.0, 0.00797024
780.0, 0.0060913
782.0, 0.00839328
784.0, 0.00900748
786.0, 0.00976539
788.0, 0.00943215
790.0, 0.0019511
792.0, 0.00592032
794.0, 0.000478821
796.0, 0.00312529
798.0, 0.00431211
800.0, 0.00679194
802.0, 0.0158223
804.0, 0.0123788
806.0, 0.00242237
808.0, 0.0130757
810.0, 0.0106759
812.0, 0.00272782
814.0, 0.0141353
816.0, 0.00340508
818.0, 0.0106483
820.0, 0.0146408
822.0, 0.00198011
824.0, 0.00127616
826.0, 0.0104365
828.0, 0.0149072
830.0, 0.00935656
832.0, 0.00304446
834.0, 0.014114
836.0, 0.0160139
838.0, 0.0122182
840.0, 0.0127553
842.0, 0.0104531
844.0, 0.0113549
846.0, 0.0193731
848.0, 0.0106303
850.0, 0.00900051
852.0, 0.00737773
854.0, 0.0231617
856.0, 0.0211106
858.0, 0.0147688
860.0, 0.0201868
862.0, 0.0183941
864.0, 0.0203411
866.0, 0.0165923
868.0, 0.0275081
870.0, 0.0232446
872.0, 0.0287096
874.0, 0.0246737
876.0, 0.0286724
878.0, 0.0300579
880.0, 0.0293609
882.0, 0.0242935
884.0, 0.0228133
886.0, 0.0138604
888.0, 0.00571816
890.0, 0.0187012
892.0, 0.0119355
894.0, 0.0192151
896.0, 0.028663
898.0, 0.0339868
900.0, 0.0303881
902.0, 0.0216362
904.0, 0.00390493
906.0, 0.0265736
908.0, 0.0318725
910.0, 0.0391053
912.0, 0.0452424
914.0, 0.0421139
916.0, 0.0464537
918.0, 0.0469621
920.0, 0.0481305
922.0, 0.0581126
924.0, 0.0523801
926.0, 0.0516346
928.0, 0.0538819
930.0, 0.0495134
932.0, 0.0377174
934.0, 0.0492736
936.0, 0.033072
938.0, 0.042918
940.0, 0.0322327
942.0, 0.0234641
944.0, 0.0270529
946.0, 0.0387432
948.0, 0.0284795
950.0, 0.0254448
952.0, 0.0139364
954.0, 0.0240923
956.0, 0.0307122
958.0, 0.0227915
960.0, 0.0225363
962.0, 0.0112713
964.0, 0.0216085
966.0, 0.0165271
968.0, 0.0234423
970.0, 0.0201088
972.0, 0.01606
974.0, 0.0141201
976.0, 0.0168306
978.0, 0.0166417
980.0, 0.0180423
982.0, 0.0125412
984.0, 0.0185487
986.0, 0.0196203
988.0, 0.0168889
990.0, 0.0170126
992.0, 0.0159469
994.0, 0.00959392
996.0, 0.0287128
998.0, 0.0246879
1000.0, 0.0191965
1002.0, 0.0260155
1004.0, 0.0398244
1006.0, 0.0221419
1008.0, 0.0245659
1010.0, 0.0421234
1012.0, 0.0527275
1014.0, 0.0541315
1016.0, 0.0521338
1018.0, 0.0740841
1020.0, 0.084853
1022.0, 0.0914732
1024.0, 0.0831804
1026.0, 0.0856159
1028.0, 0.0836798
1030.0, 0.0708255
1032.0, 0.0809629
1034.0, 0.0843062
1036.0, 0.0877319
1038.0, 0.0890232
1040.0, 0.103644
1042.0, 0.117612
1044.0, 0.131937
1046.0, 0.128206
1048.0, 0.135543
1050.0, 0.13386
1052.0, 0.15036
1054.0, 0.151576
1056.0, 0.163219
1058.0, 0.197028
1060.0, 0.163302
1062.0, 0.169354
1064.0, 0.151525
1066.0, 0.128233
1068.0, 0.0955933
1070.0, 0.081296
1072.0, 0.0711361
1074.0, 0.0503098
1076.0, 0.0526122
1078.0, 0.0416413
1080.0, 0.0412242
1082.0, 0.0464806
1084.0, 0.0331688
1086.0, 0.0347445
1088.0, 0.0365337
1090.0, 0.0168219
1092.0, 0.0283254
1094.0, 0.0299882
1096.0, 0.0291186
1098.0, 0.0211266
1100.0, 0.0253966
1102.0, 0.022079
1104.0, 0.0116189
1106.0, 0.0131767
1108.0, 0.00299317
1110.0, 0.00618507
1112.0, 0.00157816
1114.0, 0.0184584
1116.0, 0.00632114
1118.0, 0.0238214
1120.0, 0.0280284
1122.0, 0.0258934
1124.0, 0.0302049
1126.0, 0.014352
1128.0, 0.0224091
1130.0, 0.0196539
1132.0, 0.00917585
1134.0, 0.00350835
1136.0, 0.0157061
1138.0, 0.00668186
1140.0, 0.00930889
1142.0, 0.0115162
1144.0, 0.00959865
1146.0, 0.00754132
1148.0, 0.0128944
1150.0, 0.000295196
1152.0, 0.00374645
1154.0, 0.0269364
1156.0, 0.0311129
1158.0, 0.0217422
1160.0, 0.00977122
1162.0, 0.00182954
1164.0, 0.00536149
1166.0, 0.0177076
1168.0, 0.00436613
1170.0, 0.0080873
1172.0, 0.0140731
1174.0, 0.020079
1176.0, 0.0175606
1178.0, 0.0101033
1180.0, 0.00214111
1182.0, 0.00444842
1184.0, 0.00851341
1186.0, 0.0118054
1188.0, 0.00640789
1190.0, 0.0098819
1192.0, 0.019196
1194.0, 0.0108349
1196.0, 0.0210039
1198.0, 0.0103032
1200.0, 0.0184834
1202.0, 0.0120561
1204.0, 0.0115184
1206.0, 0.0161856
1208.0, 0.0016715
1210.0, 0.0067543
1212.0, 0.0098385
1214.0, 0.00241774
1216.0, 0.0141508
1218.0, 0.0144798
1220.0, 0.014286
1222.0, 0.0320924
1224.0, 0.0132586
1226.0, 0.0184125
1228.0, 0.0274794
1230.0, 0.00715962
1232.0, 0.00531444
1234.0, 0.0135768
1236.0, 0.0318164
1238.0, 0.0191506
1240.0, 0.0260627
1242.0, 0.0170658
1244.0, 0.011709
1246.0, 0.0236707
1248.0, 0.0178546
1250.0, 0.0189178
1252.0, 0.0294734
1254.0, 0.0184932
1256.0, 0.0183402
1258.0, 0.0264106
1260.0, 0.014154
1262.0, 0.0174316
1264.0, 0.0232023
1266.0, 0.0362486
1268.0, 0.0161653
1270.0, 0.0324569
1272.0, 0.0335172
1274.0, 0.0312163
1276.0, 0.0275257
1278.0, 0.0317363
1280.0, 0.0477188
1282.0, 0.0372464
1284.0, 0.0380338
1286.0, 0.0408188
1288.0, 0.0365312
1290.0, 0.033845
1292.0, 0.0319632
1294.0, 0.0397095
1296.0, 0.0334537
1298.0, 0.0378514
1300.0, 0.0467997
1302.0, 0.0421444
1304.0, 0.0384791
1306.0, 0.0339453
1308.0, 0.0465302
1310.0, 0.0498733
1312.0, 0.0487258
1314.0, 0.0471896
1316.0, 0.0423664
1318.0, 0.0322525
1320.0, 0.0373076
1322.0, 0.0359992
1324.0, 0.0477942
1326.0, 0.0496073
1328.0, 0.049373
1330.0, 0.0451179
1332.0, 0.0373343
1334.0, 0.0334388
1336.0, 0.0389157
1338.0, 0.0337021
1340.0, 0.049708
1342.0, 0.0506695
1344.0, 0.057155
1346.0, 0.0529425
1348.0, 0.051979
1350.0, 0.0561926
1352.0, 0.0508872
1354.0, 0.0622492
1356.0, 0.040685
1358.0, 0.0539625
1360.0, 0.0544625
1362.0, 0.0667782
1364.0, 0.0610981
1366.0, 0.0497177
1368.0, 0.0662184
1370.0, 0.0444684
1372.0, 0.0463301
1374.0, 0.0523732
1376.0, 0.0516056
1378.0, 0.0539985
1380.0, 0.0414116
1382.0, 0.047771
1384.0, 0.0464783
1386.0, 0.0392481
1388.0, 0.0392689
1390.0, 0.0411906
1392.0, 0.0263584
1394.0, 0.0237107
1396.0, 0.0304263
1398.0, 0.0337785
1400.0, 0.0311096
1402.0, 0.0193805
1404.0, 0.0281727
1406.0, 0.0209109
1408.0, 0.0230521
1410.0, 0.0273532
1412.0, 0.0182477
1414.0, 0.0190858
1416.0, 0.0232115
1418.0, 0.0272221
1420.0, 0.0256095
1422.0, 0.0136435
1424.0, 0.0130569
1426.0, 0.021105
1428.0, 0.0150601
1430.0, 0.00836852
1432.0, 0.00722455
1434.0, 0.00817204
1436.0, 0.00959912
1438.0, 0.0153894
1440.0, 0.0115311
1442.0, 0.0123776
1444.0, 0.00432153
1446.0, 0.00216689
1448.0, 0.00303768
1450.0, 0.00952675
1452.0, 0.00179669
1454.0, 0.00385185
1456.0, 0.00065277
1458.0, 0.00357869
1460.0, 0.00794679
1462.0, 0.0114614
1464.0, 0.00427853
1466.0, 0.00420221
1468.0, 0.00186023
1470.0, 0.00857125
1472.0, 0.0112666
1474.0, 0.00359723
1476.0, 0.0101784
1478.0, 0.0146586
1480.0, 0.0177683
1482.0, 0.0145111
1484.0, 0.0145295
1486.0, 0.00692509
1488.0, 0.00587203
1490.0, 0.0095597
1492.0, 0.0174978
1494.0, 0.0145282
1496.0, 0.0190186
1498.0, 0.0154287
1500.0, 0.0199787
1502.0, 0.0232286
1504.0, 0.013713
1506.0, 0.0223461
1508.0, 0.00538349
1510.0, 0.01728
1512.0, 0.0141879
1514.0, 0.0162025
1516.0, 0.0147538
1518.0, 0.00737838
1520.0, 0.00197416
1522.0, 0.00377438
1524.0, 3.46334e-06
1526, 0.0
1528, 0.0
1530, 0.0
1532, 0.0
1534, 0.0
1536, 0.0
1538, 0.0
1540, 0.0
1542, 0.0
1544, 0.0
1546, 0.0
1548, 0.0
1550, 0.0
1552, 0.0
1554, 0.0
1556, 0.0
1558, 0.0
1560, 0.0
1562, 0.0
1564, 0.0
1566, 0.0
1568, 0.0
1570, 0.0
1572, 0.0
1574, 0.0
1576, 0.0
1578, 0.0
1580, 0.0
1582, 0.0
1584, 0.0
1586, 0.0
1588, 0.0
1590, 0.0
1592, 0.0
1594, 0.0
1596, 0.0
1598, 0.0
1599, 0.0