File: raw data/Dataset_2/Ferroactinolite/Ferroactinolite__R060189-4__Raman__514__45__ccw__Raman_Data_Processed__13258.txt
30, 0.0
32, 0.0
34, 0.0
36, 0.0
38, 0.0
40, 0.0
42, 0.0
44, 0.0
46, 0.0
48, 0.0
50, 0.0
52, 0.0
54, 0.0
56, 0.0
58, 0.0
60, 0.0
62, 0.0
64, 0.0
66, 0.0
68, 0.0
70, 0.0
72, 0.0
74, 0.0
76, 0.0
78, 0.0
80, 0.0
82, 0.0
84, 0.0
86, 0.0
88, 0.0
90, 0.0
92, 0.0
94, 0.0
96.0, 2.43e-05
98.0, 0.000728536
100.0, 0.00631815
102.0, 0.00805925
104.0, 0.0159576
106.0, 0.0546338
108.0, 0.126705
110.0, 0.197297
112.0, 0.193855
114.0, 0.177801
116.0, 0.140239
118.0, 0.125314
120.0, 0.0801133
122.0, 0.0532958
124.0, 0.0589015
126.0, 0.0526416
128.0, 0.0591481
130.0, 0.0664238
132.0, 0.0774882
134.0, 0.0690919
136.0, 0.0805213
138.0, 0.115703
140.0, 0.191448
142.0, 0.264735
144.0, 0.331822
146.0, 0.37514
148.0, 0.357542
150.0, 0.261964
152.0, 0.179201
154.0, 0.128795
156.0, 0.0911784
158.0, 0.0690924
160.0, 0.0566979
162.0, 0.0738415
164.0, 0.111445
166.0, 0.152392
168.0, 0.19227
170.0, 0.235186
172.0, 0.258359
174.0, 0.221515
176.0, 0.176441
178.0, 0.124798
180.0, 0.0966752
182.0, 0.0802104
184.0, 0.0747921
186.0, 0.073953
188.0, 0.0824778
190.0, 0.102898
192.0, 0.116229
194.0, 0.134507
196.0, 0.154493
198.0, 0.164554
200.0, 0.181271
202.0, 0.218019
204.0, 0.230889
206.0, 0.200464
208.0, 0.192193
210.0, 0.211565
212.0, 0.235772
214.0, 0.257778
216.0, 0.262258
218.0, 0.247796
220.0, 0.230174
222.0, 0.197988
224.0, 0.172593
226.0, 0.154956
228.0, 0.132105
230.0, 0.110473
232.0, 0.103824
234.0, 0.0892167
236.0, 0.0772687
238.0, 0.0706562
240.0, 0.0585355
242.0, 0.0485671
244.0, 0.0407193
246.0, 0.0305725
248.0, 0.0248352
250.0, 0.017339
252.0, 0.014322
254.0, 0.00982007
256.0, 0.0045673
258.0, 0.00648457
260.0, 0.0307436
262.0, 0.0213894
264.0, 0.00577076
266.0, 0.00991445
268.0, 0.0049354
270.0, 0.00966743
272.0, 0.00810197
274.0, 0.00511431
276.0, 0.00615499
278.0, 0.00119129
280.0, 0.00313436
282.0, 0.00412069
284.0, 0.0115122
286.0, 0.00952517
288.0, 0.0124119
290.0, 0.0109722
292.0, 0.0161493
294.0, 0.0106507
296.0, 0.0080246
298.0, 0.0115577
300.0, 0.0138159
302.0, 0.0153947
304.0, 0.0149647
306.0, 0.0128352
308.0, 0.014316
310.0, 0.0196532
312.0, 0.0222457
314.0, 0.0238793
316.0, 0.0293057
318.0, 0.0288445
320.0, 0.0343554
322.0, 0.0445751
324.0, 0.0475411
326.0, 0.059091
328.0, 0.0625321
330.0, 0.0666681
332.0, 0.063668
334.0, 0.0718031
336.0, 0.0721013
338.0, 0.077279
340.0, 0.078076
342.0, 0.0786495
344.0, 0.0833178
346.0, 0.0908298
348.0, 0.0985605
350.0, 0.101787
352.0, 0.115988
354.0, 0.113915
356.0, 0.117265
358.0, 0.116082
360.0, 0.115726
362.0, 0.108609
364.0, 0.103644
366.0, 0.101804
368.0, 0.101172
370.0, 0.102988
372.0, 0.120255
374.0, 0.124493
376.0, 0.135766
378.0, 0.14797
380.0, 0.157857
382.0, 0.15829
384.0, 0.155156
386.0, 0.148682
388.0, 0.135258
390.0, 0.117737
392.0, 0.117112
394.0, 0.0997976
396.0, 0.0850895
398.0, 0.082168
400.0, 0.0679785
402.0, 0.0673149
404.0, 0.0559775
406.0, 0.0417454
408.0, 0.0331745
410.0, 0.0282846
412.0, 0.0248808
414.0, 0.018854
416.0, 0.01231
418.0, 0.0155366
420.0, 0.0180262
422.0, 0.01385
424.0, 0.029184
426.0, 0.0385553
428.0, 0.044273
430.0, 0.0481023
432.0, 0.0401221
434.0, 0.0393597
436.0, 0.0192562
438.0, 0.0148124
440.0, 0.00687536
442.0, 0.00463965
444.0, 0.0059328
446.0, 0.00227797
448.0, 0.00808502
450.0, 0.00731438
452.0, 0.00516267
454.0, 0.00839732
456.0, 0.00518459
458.0, 0.00916953
460.0, 0.00825048
462.0, 0.0044024
464.0, 0.00223453
466.0, 0.00574142
468.0, 0.00507727
470.0, 0.000334749
472.0, 0.00441456
474.0, 0.0243434
476.0, 0.0267845
478.0, 0.015689
480.0, 0.00952557
482.0, 0.0152654
484.0, 0.0123072
486.0, 0.0203454
488.0, 0.0249362
490.0, 0.0249772
492.0, 0.0372032
494.0, 0.0397891
496.0, 0.0424628
498.0, 0.0576118
500.0, 0.0644749
502.0, 0.0677041
504.0, 0.0712259
506.0, 0.0741451
508.0, 0.0798717
510.0, 0.0858324
512.0, 0.0882205
514.0, 0.0911756
516.0, 0.0939612
518.0, 0.106838
520.0, 0.112755
522.0, 0.108728
524.0, 0.111865
526.0, 0.105583
528.0, 0.104602
530.0, 0.0986355
532.0, 0.0968035
534.0, 0.0984906
536.0, 0.0888187
538.0, 0.0872945
540.0, 0.0841311
542.0, 0.0783924
544.0, 0.0819211
546.0, 0.0745261
548.0, 0.0727155
550.0, 0.0718879
552.0, 0.0667171
554.0, 0.0653991
556.0, 0.068656
558.0, 0.063104
560.0, 0.0623964
562.0, 0.054692
564.0, 0.0647885
566.0, 0.0593486
568.0, 0.0563669
570.0, 0.0501295
572.0, 0.0497178
574.0, 0.0456832
576.0, 0.0374161
578.0, 0.0394513
580.0, 0.0346975
582.0, 0.0301782
584.0, 0.0196585
586.0, 0.0189799
588.0, 0.0125466
590.0, 0.0156818
592.0, 0.0119297
594.0, 0.0144807
596.0, 0.0151295
598.0, 0.0113534
600.0, 0.0110344
602.0, 0.0014225
604.0, 0.00891908
606.0, 0.00485036
608.0, 0.0109359
610.0, 0.00730308
612.0, 0.0132149
614.0, 0.0104354
616.0, 0.0156524
618.0, 0.0178509
620.0, 0.0203007
622.0, 0.0264221
624.0, 0.0295329
626.0, 0.0369575
628.0, 0.0520285
630.0, 0.0537335
632.0, 0.0715827
634.0, 0.079502
636.0, 0.0921629
638.0, 0.106073
640.0, 0.122238
642.0, 0.138073
644.0, 0.154704
646.0, 0.175523
648.0, 0.202317
650.0, 0.238102
652.0, 0.288213
654.0, 0.368244
656.0, 0.459112
658.0, 0.590056
660.0, 0.74098
662.0, 0.881711
664.0, 0.983535
666.0, 0.998213
668.0, 0.901728
670.0, 0.743719
672.0, 0.585441
674.0, 0.450492
676.0, 0.351853
678.0, 0.270553
680.0, 0.228209
682.0, 0.183538
684.0, 0.147993
686.0, 0.130751
688.0, 0.11824
690.0, 0.0964333
692.0, 0.0784735
694.0, 0.0763873
696.0, 0.0682661
698.0, 0.0582677
700.0, 0.0493106
702.0, 0.0428906
704.0, 0.0392498
706.0, 0.0410971
708.0, 0.0291633
710.0, 0.0330507
712.0, 0.030404
714.0, 0.0294523
716.0, 0.0340993
718.0, 0.0313687
720.0, 0.0338609
722.0, 0.0387249
724.0, 0.0344578
726.0, 0.0446516
728.0, 0.0506952
730.0, 0.0503403
732.0, 0.0625436
734.0, 0.066822
736.0, 0.0655876
738.0, 0.0577872
740.0, 0.0504014
742.0, 0.0456159
744.0, 0.0431235
746.0, 0.0395405
748.0, 0.0308521
750.0, 0.030641
752.0, 0.0276866
754.0, 0.0254394
756.0, 0.0290124
758.0, 0.0209491
760.0, 0.0189029
762.0, 0.0158776
764.0, 0.0117915
766.0, 0.0161595
768.0, 0.0163494
770.0, 0.0125452
772.0, 0.00930649
774.0, 0.0067277
776.0, 0.0126173
778.0, 0.00281582
780.0, 0.00289009
782.0, 0.00276773
784.0, 0.00338218
786.0, 0.00428316
788.0, 0.00323376
790.0, 0.0032478
792.0, 0.00122274
794.0, 0.00500057
796.0, 0.00585793
798.0, 0.00125018
800.0, 0.0122115
802.0, 0.00947512
804.0, 0.00430731
806.0, 0.00568097
808.0, 0.00492896
810.0, 0.00429824
812.0, 0.0032185
814.0, 0.00113416
816.0, 0.00137195
818.0, 0.00302701
820.0, 0.00770219
822.0, 0.00351915
824.0, 0.00224969
826.0, 0.000807222
828.0, 0.00200289
830.0, 0.00124373
832.0, 0.00133152
834.0, 0.00664626
836.0, 0.00609955
838.0, 0.0265145
840.0, 0.00248785
842.0, 0.00431967
844.0, 0.0063197
846.0, 0.0115917
848.0, 0.0147411
850.0, 0.00480305
852.0, 0.00415351
854.0, 0.0159542
856.0, 0.0127356
858.0, 0.0146644
860.0, 0.0155123
862.0, 0.0177392
864.0, 0.0178623
866.0, 0.0239278
868.0, 0.0235241
870.0, 0.0230275
872.0, 0.0229218
874.0, 0.0284637
876.0, 0.0339323
878.0, 0.0334557
880.0, 0.0281964
882.0, 0.0359952
884.0, 0.0393336
886.0, 0.0372517
888.0, 0.0321084
890.0, 0.0494555
892.0, 0.0520173
894.0, 0.0608814
896.0, 0.0630018
898.0, 0.0660087
900.0, 0.0687967
902.0, 0.0663416
904.0, 0.0960119
906.0, 0.0829759
908.0, 0.0728747
910.0, 0.0830693
912.0, 0.083195
914.0, 0.0898557
916.0, 0.103685
918.0, 0.106662
920.0, 0.120299
922.0, 0.130772
924.0, 0.130568
926.0, 0.128752
928.0, 0.121627
930.0, 0.109969
932.0, 0.103497
934.0, 0.10001
936.0, 0.0925466
938.0, 0.0853893
940.0, 0.0828518
942.0, 0.08391
944.0, 0.0806986
946.0, 0.0824338
948.0, 0.0790511
950.0, 0.076372
952.0, 0.071463
954.0, 0.0802879
956.0, 0.0753395
958.0, 0.0770383
960.0, 0.0780326
962.0, 0.0786274
964.0, 0.0725684
966.0, 0.0737177
968.0, 0.0698569
970.0, 0.0823479
972.0, 0.0672386
974.0, 0.0682148
976.0, 0.0663833
978.0, 0.0622767
980.0, 0.0661323
982.0, 0.0629482
984.0, 0.0606792
986.0, 0.0678878
988.0, 0.0722848
990.0, 0.0729395
992.0, 0.0761739
994.0, 0.074356
996.0, 0.0882759
998.0, 0.0935611
1000.0, 0.0920635
1002.0, 0.101873
1004.0, 0.106858
1006.0, 0.116247
1008.0, 0.126993
1010.0, 0.149532
1012.0, 0.158173
1014.0, 0.162292
1016.0, 0.172939
1018.0, 0.189979
1020.0, 0.197785
1022.0, 0.202907
1024.0, 0.203973
1026.0, 0.196257
1028.0, 0.183026
1030.0, 0.175056
1032.0, 0.180788
1034.0, 0.188728
1036.0, 0.193403
1038.0, 0.214762
1040.0, 0.235401
1042.0, 0.252949
1044.0, 0.274237
1046.0, 0.27801
1048.0, 0.27438
1050.0, 0.261135
1052.0, 0.250571
1054.0, 0.245255
1056.0, 0.239885
1058.0, 0.247345
1060.0, 0.241505
1062.0, 0.223571
1064.0, 0.196038
1066.0, 0.162727
1068.0, 0.12291
1070.0, 0.112958
1072.0, 0.0976401
1074.0, 0.0736238
1076.0, 0.0709418
1078.0, 0.0668836
1080.0, 0.0616825
1082.0, 0.0513748
1084.0, 0.0464727
1086.0, 0.0471908
1088.0, 0.0446527
1090.0, 0.040974
1092.0, 0.03596
1094.0, 0.0436172
1096.0, 0.0379782
1098.0, 0.0326846
1100.0, 0.0311453
1102.0, 0.0350001
1104.0, 0.0308871
1106.0, 0.0306043
1108.0, 0.0265441
1110.0, 0.0209124
1112.0, 0.0146947
1114.0, 0.0143955
1116.0, 0.0160419
1118.0, 0.0306547
1120.0, 0.0391383
1122.0, 0.0317834
1124.0, 0.0280303
1126.0, 0.0231623
1128.0, 0.0239915
1130.0, 0.0228775
1132.0, 0.0114388
1134.0, 0.00602412
1136.0, 0.000446761
1138.0, 0.00756628
1140.0, 0.00389294
1142.0, 0.00575928
1144.0, 0.0146235
1146.0, 0.00645763
1148.0, 0.00350128
1150.0, 0.00619309
1152.0, 0.00241438
1154.0, 0.00511303
1156.0, 0.00161029
1158.0, 0.00188735
1160.0, 0.00244407
1162.0, 0.000499438
1164.0, 0.00971468
1166.0, 0.00390566
1168.0, 0.00616765
1170.0, 0.0109677
1172.0, 0.020234
1174.0, 0.00325604
1176.0, 0.00406118
1178.0, 0.00151565
1180.0, 0.00596916
1182.0, 0.00478962
1184.0, 0.00127679
1186.0, 0.0114859
1188.0, 0.00127763
1190.0, 0.00115506
1192.0, 0.00339464
1194.0, 0.00300035
1196.0, 0.00299967
1198.0, 0.00215513
1200.0, 0.0066954
1202.0, 0.00429892
1204.0, 0.00527558
1206.0, 0.00482419
1208.0, 0.00208632
1210.0, 0.00923303
1212.0, 0.00574303
1214.0, 0.000625824
1216.0, 0.0110986
1218.0, 0.00396199
1220.0, 0.00887687
1222.0, 0.00415697
1224.0, 0.00168118
1226.0, 0.0043081
1228.0, 0.00403347
1230.0, 0.0101118
1232.0, 0.00077785
1234.0, 0.00643513
1236.0, 0.0140336
1238.0, 0.012009
1240.0, 0.00984633
1242.0, 0.00849388
1244.0, 0.0140519
1246.0, 0.0116201
1248.0, 0.007795
1250.0, 0.0172369
1252.0, 0.010514
1254.0, 0.00853217
1256.0, 0.00790386
1258.0, 0.0141277
1260.0, 0.00821425
1262.0, 0.00868664
1264.0, 0.0171402
1266.0, 0.0101193
1268.0, 0.0101154
1270.0, 0.0136995
1272.0, 0.00769683
1274.0, 0.012245
1276.0, 0.0176858
1278.0, 0.0171905
1280.0, 0.0207477
1282.0, 0.0223071
1284.0, 0.020556
1286.0, 0.0196834
1288.0, 0.0182566
1290.0, 0.021663
1292.0, 0.0256042
1294.0, 0.0207537
1296.0, 0.0182101
1298.0, 0.0255214
1300.0, 0.020805
1302.0, 0.0149997
1304.0, 0.0248578
1306.0, 0.0236168
1308.0, 0.0251619
1310.0, 0.0201289
1312.0, 0.015009
1314.0, 0.0201445
1316.0, 0.0218949
1318.0, 0.0184554
1320.0, 0.024252
1322.0, 0.0250323
1324.0, 0.0221889
1326.0, 0.0145048
1328.0, 0.0228038
1330.0, 0.0240015
1332.0, 0.0218303
1334.0, 0.0305442
1336.0, 0.0316014
1338.0, 0.0254941
1340.0, 0.0227699
1342.0, 0.0256032
1344.0, 0.02882
1346.0, 0.035237
1348.0, 0.0315369
1350.0, 0.0295044
1352.0, 0.0244753
1354.0, 0.0248724
1356.0, 0.0260265
1358.0, 0.0305123
1360.0, 0.0239116
1362.0, 0.0167744
1364.0, 0.0264794
1366.0, 0.0252453
1368.0, 0.0222526
1370.0, 0.01497
1372.0, 0.0222551
1374.0, 0.0263134
1376.0, 0.0155833
1378.0, 0.0231552
1380.0, 0.0195387
1382.0, 0.0168341
1384.0, 0.0219186
1386.0, 0.0170574
1388.0, 0.0184524
1390.0, 0.0180123
1392.0, 0.0175583
1394.0, 0.0222893
1396.0, 0.0183119
1398.0, 0.0171989
1400.0, 0.0165347
1402.0, 0.0106619
1404.0, 0.0190763
1406.0, 0.0150797
1408.0, 0.0124722
1410.0, 0.0101759
1412.0, 0.00672542
1414.0, 0.0057459
1416.0, 0.00625855
1418.0, 0.00507933
1420.0, 0.00505963
1422.0, 0.00581768
1424.0, 0.0107892
1426.0, 0.0058262
1428.0, 0.00387446
1430.0, 0.00995118
1432.0, 0.00494174
1434.0, 0.00746375
1436.0, 0.0108466
1438.0, 0.00911682
1440.0, 0.00442329
1442.0, 0.00328043
1444.0, 0.0035467
1446.0, 0.0014581
1448.0, 0.00124242
1450.0, 0.00223808
1452.0, 0.00335337
1454.0, 0.0038344
1456.0, 0.00292305
1458.0, 0.00278205
1460.0, 0.0053156
1462.0, 0.000941947
1464.0, 0.00709265
1466.0, 0.00542605
1468.0, 0.00144685
1470.0, 0.00474311
1472.0, 0.00385659
1474.0, 0.0108012
1476.0, 0.0109435
1478.0, 0.00454843
1480.0, 0.00799418
1482.0, 0.0108485
1484.0, 0.00485662
1486.0, 0.0139569
1488.0, 0.0130122
1490.0, 0.0153552
1492.0, 0.0135643
1494.0, 0.0137444
1496.0, 0.0153494
1498.0, 0.0142307
1500.0, 0.0101796
1502.0, 0.0212064
1504.0, 0.0190934
1506.0, 0.0176655
1508.0, 0.0209063
1510.0, 0.0220412
1512.0, 0.014745
1514.0, 0.0253113
1516.0, 0.0163646
1518.0, 0.0218398
1520.0, 0.0235285
1522.0, 0.0213935
1524.0, 0.0166468
1526.0, 0.0216396
1528.0, 0.025259
1530.0, 0.018441
1532.0, 0.0149136
1534.0, 0.0183616
1536.0, 0.0265326
1538.0, 0.0207527
1540.0, 0.0150878
1542.0, 0.0216423
1544.0, 0.0220243
1546.0, 0.0172023
1548.0, 0.0198967
1550.0, 0.0173736
1552.0, 0.0195239
1554.0, 0.0240846
1556.0, 0.0292889
1558.0, 0.0159707
1560.0, 0.0105206
1562.0, 0.00850909
1564.0, 0.00218907
1566.0, 0.00302656
1568.0, 0.00248333
1570.0, 0.00183261
1572, 0.0
1574, 0.0
1576, 0.0
1578, 0.0
1580, 0.0
1582, 0.0
1584, 0.0
1586, 0.0
1588, 0.0
1590, 0.0
1592, 0.0
1594, 0.0
1596, 0.0
1598, 0.0
1599, 0.0