File: raw data/Dataset_2/Ferroactinolite/Ferroactinolite__R060189-3__Raman__514__90__ccw__Raman_Data_Processed__13254.txt
30, 0.0
32, 0.0
34, 0.0
36, 0.0
38, 0.0
40, 0.0
42, 0.0
44, 0.0
46, 0.0
48, 0.0
50, 0.0
52, 0.0
54, 0.0
56, 0.0
58, 0.0
60, 0.0
62, 0.0
64, 0.0
66, 0.0
68, 0.0
70, 0.0
72, 0.0
74, 0.0
76, 0.0
78, 0.0
80, 0.0
82, 0.0
84, 0.0
86, 0.0
88, 0.0
90, 0.0
92, 0.0
94, 0.0
96.0, 0.000140214
98.0, 0.00276431
100.0, 0.00128566
102.0, 0.00268924
104.0, 0.00202242
106.0, 0.00746839
108.0, 0.0221439
110.0, 0.0372739
112.0, 0.0257459
114.0, 0.0121907
116.0, 0.0169813
118.0, 0.0162557
120.0, 0.0063446
122.0, 0.00301282
124.0, 0.0030781
126.0, 0.005185
128.0, 0.00643029
130.0, 0.0136377
132.0, 0.0198916
134.0, 0.0210618
136.0, 0.0317021
138.0, 0.0569022
140.0, 0.0968588
142.0, 0.150926
144.0, 0.224339
146.0, 0.317204
148.0, 0.377537
150.0, 0.347536
152.0, 0.252638
154.0, 0.166485
156.0, 0.116008
158.0, 0.0869879
160.0, 0.0781508
162.0, 0.0849846
164.0, 0.109587
166.0, 0.149276
168.0, 0.210539
170.0, 0.283032
172.0, 0.34116
174.0, 0.331437
176.0, 0.265875
178.0, 0.19451
180.0, 0.142326
182.0, 0.104338
184.0, 0.0855911
186.0, 0.076996
188.0, 0.0763545
190.0, 0.0774651
192.0, 0.0820762
194.0, 0.0920204
196.0, 0.101027
198.0, 0.115792
200.0, 0.13151
202.0, 0.152958
204.0, 0.174224
206.0, 0.185956
208.0, 0.214762
210.0, 0.255572
212.0, 0.306923
214.0, 0.354675
216.0, 0.390609
218.0, 0.406648
220.0, 0.396258
222.0, 0.362977
224.0, 0.306991
226.0, 0.252843
228.0, 0.199527
230.0, 0.154565
232.0, 0.117171
234.0, 0.0908475
236.0, 0.0734782
238.0, 0.0600824
240.0, 0.05263
242.0, 0.0438792
244.0, 0.0389821
246.0, 0.036893
248.0, 0.0326808
250.0, 0.033054
252.0, 0.0289944
254.0, 0.028364
256.0, 0.0258686
258.0, 0.0243038
260.0, 0.0288662
262.0, 0.0268951
264.0, 0.0237218
266.0, 0.0233853
268.0, 0.0221485
270.0, 0.022773
272.0, 0.0201878
274.0, 0.0227433
276.0, 0.0233768
278.0, 0.0269013
280.0, 0.0289556
282.0, 0.0276156
284.0, 0.0294907
286.0, 0.0316701
288.0, 0.0309972
290.0, 0.0318203
292.0, 0.0273399
294.0, 0.0275904
296.0, 0.0239708
298.0, 0.0213021
300.0, 0.018689
302.0, 0.0188602
304.0, 0.0179603
306.0, 0.0161914
308.0, 0.0143933
310.0, 0.0123695
312.0, 0.0152083
314.0, 0.013714
316.0, 0.0145478
318.0, 0.0175268
320.0, 0.0192618
322.0, 0.0207305
324.0, 0.0239766
326.0, 0.02648
328.0, 0.0279622
330.0, 0.0270267
332.0, 0.0295514
334.0, 0.0310863
336.0, 0.0320022
338.0, 0.0321556
340.0, 0.0345173
342.0, 0.0378042
344.0, 0.0408891
346.0, 0.0446058
348.0, 0.0479285
350.0, 0.0493507
352.0, 0.0509674
354.0, 0.0533413
356.0, 0.0537571
358.0, 0.0558213
360.0, 0.052737
362.0, 0.0511844
364.0, 0.0461168
366.0, 0.0405432
368.0, 0.0380032
370.0, 0.0360042
372.0, 0.0342849
374.0, 0.0368014
376.0, 0.0374655
378.0, 0.0396592
380.0, 0.0416726
382.0, 0.0397149
384.0, 0.0389596
386.0, 0.0384639
388.0, 0.0337051
390.0, 0.0303635
392.0, 0.0249339
394.0, 0.0210764
396.0, 0.0185165
398.0, 0.0158882
400.0, 0.0136397
402.0, 0.0117759
404.0, 0.00875239
406.0, 0.00872394
408.0, 0.00719966
410.0, 0.00429434
412.0, 0.00267657
414.0, 0.00142939
416.0, 0.00138696
418.0, 0.00125887
420.0, 0.000426736
422.0, 0.00223587
424.0, 0.000548197
426.0, 0.00266519
428.0, 0.00263532
430.0, 0.00346386
432.0, 0.00463133
434.0, 0.00401592
436.0, 0.00141676
438.0, 0.00119431
440.0, 0.000355298
442.0, 0.00176806
444.0, 0.00269853
446.0, 0.00462906
448.0, 0.00374334
450.0, 0.0032076
452.0, 0.00281866
454.0, 0.00195458
456.0, 0.00103145
458.0, 0.00223784
460.0, 0.00166962
462.0, 0.00126919
464.0, 0.00100304
466.0, 0.00096976
468.0, 0.0012827
470.0, 0.000591265
472.0, 0.000529424
474.0, 0.000526994
476.0, 0.000386598
478.0, 0.0011171
480.0, 0.000813644
482.0, 0.00155512
484.0, 0.00039458
486.0, 0.000448619
488.0, 0.00170296
490.0, 0.00367687
492.0, 0.004239
494.0, 0.00487409
496.0, 0.00586508
498.0, 0.00760429
500.0, 0.00948366
502.0, 0.012406
504.0, 0.013691
506.0, 0.0143674
508.0, 0.0165963
510.0, 0.0170785
512.0, 0.0186198
514.0, 0.021553
516.0, 0.0220232
518.0, 0.0283269
520.0, 0.0299261
522.0, 0.0317105
524.0, 0.0332716
526.0, 0.034054
528.0, 0.0342419
530.0, 0.0324073
532.0, 0.0310181
534.0, 0.0284403
536.0, 0.0277625
538.0, 0.0268086
540.0, 0.0252074
542.0, 0.0243894
544.0, 0.023255
546.0, 0.0210264
548.0, 0.0202113
550.0, 0.0198292
552.0, 0.0182896
554.0, 0.0180082
556.0, 0.016864
558.0, 0.0154719
560.0, 0.0133637
562.0, 0.0142267
564.0, 0.0144871
566.0, 0.014049
568.0, 0.0140996
570.0, 0.0138588
572.0, 0.0132332
574.0, 0.011869
576.0, 0.011203
578.0, 0.0108401
580.0, 0.00773851
582.0, 0.00694132
584.0, 0.00557689
586.0, 0.00507581
588.0, 0.00477161
590.0, 0.00483196
592.0, 0.00360848
594.0, 0.00262831
596.0, 0.00472188
598.0, 0.00496281
600.0, 0.00713391
602.0, 0.00807848
604.0, 0.00851098
606.0, 0.0105775
608.0, 0.010916
610.0, 0.0121925
612.0, 0.0138175
614.0, 0.0165328
616.0, 0.0179458
618.0, 0.0223723
620.0, 0.023645
622.0, 0.028895
624.0, 0.0320005
626.0, 0.0377171
628.0, 0.0428843
630.0, 0.0508398
632.0, 0.0590045
634.0, 0.0689118
636.0, 0.0773113
638.0, 0.0898842
640.0, 0.10308
642.0, 0.116537
644.0, 0.132413
646.0, 0.155081
648.0, 0.181114
650.0, 0.217268
652.0, 0.257635
654.0, 0.324075
656.0, 0.410459
658.0, 0.532133
660.0, 0.67451
662.0, 0.831381
664.0, 0.955243
666.0, 0.998771
668.0, 0.923406
670.0, 0.763027
672.0, 0.583098
674.0, 0.422968
676.0, 0.309082
678.0, 0.229309
680.0, 0.175143
682.0, 0.138617
684.0, 0.112587
686.0, 0.0928615
688.0, 0.0744768
690.0, 0.0628198
692.0, 0.0506328
694.0, 0.0447237
696.0, 0.0389718
698.0, 0.033532
700.0, 0.0280667
702.0, 0.0243321
704.0, 0.0233854
706.0, 0.0189294
708.0, 0.0178158
710.0, 0.0149196
712.0, 0.0151557
714.0, 0.0135462
716.0, 0.0130108
718.0, 0.0121654
720.0, 0.0115325
722.0, 0.0116269
724.0, 0.0120775
726.0, 0.0105669
728.0, 0.0113676
730.0, 0.0129404
732.0, 0.0119098
734.0, 0.0121847
736.0, 0.0121391
738.0, 0.0138273
740.0, 0.0131989
742.0, 0.013155
744.0, 0.0119713
746.0, 0.0115156
748.0, 0.0107105
750.0, 0.00982492
752.0, 0.00850357
754.0, 0.00644149
756.0, 0.00716855
758.0, 0.00567163
760.0, 0.00430532
762.0, 0.00525192
764.0, 0.00584745
766.0, 0.00500311
768.0, 0.00457545
770.0, 0.0039664
772.0, 0.00408045
774.0, 0.003841
776.0, 0.00282728
778.0, 0.00121185
780.0, 0.00301436
782.0, 0.00239112
784.0, 0.00074866
786.0, 0.000657556
788.0, 0.000595551
790.0, 0.00155372
792.0, 0.00145135
794.0, 0.00112394
796.0, 0.000146839
798.0, 0.00190693
800.0, 0.00193187
802.0, 0.00273737
804.0, 0.00267736
806.0, 0.00162
808.0, 0.00140392
810.0, 0.000841311
812.0, 0.000267534
814.0, 0.000640026
816.0, 0.000819404
818.0, 0.000525674
820.0, 0.000925919
822.0, 0.00101826
824.0, 0.00053979
826.0, 0.000941415
828.0, 0.000361892
830.0, 0.00108556
832.0, 0.000597108
834.0, 0.000576574
836.0, 0.000401175
838.0, 0.00159728
840.0, 0.000657284
842.0, 0.000485823
844.0, 0.00203246
846.0, 0.00301108
848.0, 0.00205744
850.0, 0.000320571
852.0, 0.00142192
854.0, 0.00462108
856.0, 0.00253785
858.0, 0.00404451
860.0, 0.00374496
862.0, 0.00328631
864.0, 0.00469015
866.0, 0.00560633
868.0, 0.00660473
870.0, 0.00762509
872.0, 0.00759477
874.0, 0.00753578
876.0, 0.00934884
878.0, 0.0110189
880.0, 0.0120438
882.0, 0.0142049
884.0, 0.015463
886.0, 0.0160294
888.0, 0.0179511
890.0, 0.0214982
892.0, 0.0238894
894.0, 0.0266022
896.0, 0.0301943
898.0, 0.0327832
900.0, 0.0334346
902.0, 0.0359954
904.0, 0.0366772
906.0, 0.0401633
908.0, 0.0463189
910.0, 0.0489374
912.0, 0.05494
914.0, 0.0608079
916.0, 0.0698631
918.0, 0.079934
920.0, 0.0927952
922.0, 0.103212
924.0, 0.107436
926.0, 0.106421
928.0, 0.10246
930.0, 0.0899857
932.0, 0.0818886
934.0, 0.0733277
936.0, 0.0661169
938.0, 0.061449
940.0, 0.0589959
942.0, 0.0566275
944.0, 0.0552133
946.0, 0.0534521
948.0, 0.0530492
950.0, 0.0505182
952.0, 0.0476081
954.0, 0.0455928
956.0, 0.0455532
958.0, 0.0461076
960.0, 0.0439147
962.0, 0.0431802
964.0, 0.0444385
966.0, 0.0414764
968.0, 0.0433829
970.0, 0.0432295
972.0, 0.0449303
974.0, 0.0391793
976.0, 0.0378043
978.0, 0.0376719
980.0, 0.0371319
982.0, 0.0368168
984.0, 0.0380927
986.0, 0.0400282
988.0, 0.0382213
990.0, 0.0409577
992.0, 0.0413779
994.0, 0.0443935
996.0, 0.0485445
998.0, 0.0492829
1000.0, 0.0532712
1002.0, 0.0569531
1004.0, 0.0616758
1006.0, 0.066575
1008.0, 0.0719864
1010.0, 0.0783387
1012.0, 0.0831136
1014.0, 0.0882623
1016.0, 0.0941434
1018.0, 0.100457
1020.0, 0.105842
1022.0, 0.109846
1024.0, 0.118915
1026.0, 0.122261
1028.0, 0.128095
1030.0, 0.136663
1032.0, 0.150111
1034.0, 0.166998
1036.0, 0.192738
1038.0, 0.221977
1040.0, 0.258698
1042.0, 0.293237
1044.0, 0.32586
1046.0, 0.347303
1048.0, 0.349459
1050.0, 0.338395
1052.0, 0.30844
1054.0, 0.2775
1056.0, 0.255125
1058.0, 0.243454
1060.0, 0.235828
1062.0, 0.219529
1064.0, 0.186561
1066.0, 0.152034
1068.0, 0.120632
1070.0, 0.0949185
1072.0, 0.0788341
1074.0, 0.0668587
1076.0, 0.0554257
1078.0, 0.0486014
1080.0, 0.040668
1082.0, 0.0371978
1084.0, 0.0347975
1086.0, 0.0304503
1088.0, 0.0290106
1090.0, 0.0263359
1092.0, 0.0230947
1094.0, 0.0229955
1096.0, 0.0198057
1098.0, 0.0213122
1100.0, 0.0205479
1102.0, 0.0169122
1104.0, 0.0167168
1106.0, 0.0133206
1108.0, 0.014916
1110.0, 0.0138074
1112.0, 0.0124851
1114.0, 0.0105254
1116.0, 0.00989062
1118.0, 0.0115573
1120.0, 0.0112208
1122.0, 0.011962
1124.0, 0.0110999
1126.0, 0.0105111
1128.0, 0.00924389
1130.0, 0.00776162
1132.0, 0.00666588
1134.0, 0.00521879
1136.0, 0.00441112
1138.0, 0.00329753
1140.0, 0.00227911
1142.0, 0.00200402
1144.0, 0.0012663
1146.0, 0.00187022
1148.0, 0.000294479
1150.0, 0.000339719
1152.0, 0.000378345
1154.0, 0.000570243
1156.0, 0.00182425
1158.0, 0.00227199
1160.0, 0.000349853
1162.0, 0.000850687
1164.0, 0.00188451
1166.0, 0.000643715
1168.0, 0.00112397
1170.0, 0.000156623
1172.0, 0.00280991
1174.0, 0.00127389
1176.0, 0.000997365
1178.0, 0.00140062
1180.0, 0.000975309
1182.0, 0.000516234
1184.0, 0.00035961
1186.0, 0.00168463
1188.0, 0.00178671
1190.0, 0.000319147
1192.0, 0.000342005
1194.0, 0.000865411
1196.0, 0.000421167
1198.0, 0.000290143
1200.0, 0.00106852
1202.0, 0.000773817
1204.0, 0.000610449
1206.0, 0.00152358
1208.0, 0.000820558
1210.0, 0.0025928
1212.0, 0.0023851
1214.0, 0.00171892
1216.0, 0.00150592
1218.0, 0.00111938
1220.0, 0.00129641
1222.0, 0.0017029
1224.0, 0.000860668
1226.0, 0.0010532
1228.0, 0.00157419
1230.0, 0.00222819
1232.0, 0.00121936
1234.0, 0.000402683
1236.0, 0.00311938
1238.0, 0.00151403
1240.0, 0.00163819
1242.0, 0.00296723
1244.0, 0.00355281
1246.0, 0.00318702
1248.0, 0.00367814
1250.0, 0.00335919
1252.0, 0.0029151
1254.0, 0.00316202
1256.0, 0.00458473
1258.0, 0.00457282
1260.0, 0.00281906
1262.0, 0.00435795
1264.0, 0.00321709
1266.0, 0.00401728
1268.0, 0.00175028
1270.0, 0.0040401
1272.0, 0.00471856
1274.0, 0.0040981
1276.0, 0.00435324
1278.0, 0.00425244
1280.0, 0.00564122
1282.0, 0.00538323
1284.0, 0.00537098
1286.0, 0.0040108
1288.0, 0.00351076
1290.0, 0.00433866
1292.0, 0.00480629
1294.0, 0.00509797
1296.0, 0.00512051
1298.0, 0.00568523
1300.0, 0.00538182
1302.0, 0.00446061
1304.0, 0.00442096
1306.0, 0.00463475
1308.0, 0.00410162
1310.0, 0.00538206
1312.0, 0.00463999
1314.0, 0.00519602
1316.0, 0.00527484
1318.0, 0.00492452
1320.0, 0.00580596
1322.0, 0.00594151
1324.0, 0.00464052
1326.0, 0.00409818
1328.0, 0.00465378
1330.0, 0.00492479
1332.0, 0.0039104
1334.0, 0.00385165
1336.0, 0.00497556
1338.0, 0.00430092
1340.0, 0.00494646
1342.0, 0.00279425
1344.0, 0.00397758
1346.0, 0.00367659
1348.0, 0.00446721
1350.0, 0.00541617
1352.0, 0.0052413
1354.0, 0.00212467
1356.0, 0.00155508
1358.0, 0.00409044
1360.0, 0.00412414
1362.0, 0.00273404
1364.0, 0.00347449
1366.0, 0.00545328
1368.0, 0.00445947
1370.0, 0.00311366
1372.0, 0.00437773
1374.0, 0.00249969
1376.0, 0.00161018
1378.0, 0.00285844
1380.0, 0.00322975
1382.0, 0.00202648
1384.0, 0.00316926
1386.0, 0.00130966
1388.0, 0.00156751
1390.0, 0.0023206
1392.0, 0.00165709
1394.0, 0.00269867
1396.0, 0.00259375
1398.0, 0.00122102
1400.0, 0.00159849
1402.0, 0.00173447
1404.0, 0.00159585
1406.0, 0.00157193
1408.0, 0.00146715
1410.0, 0.00149888
1412.0, 0.00145298
1414.0, 0.00183297
1416.0, 0.00132229
1418.0, 0.000734362
1420.0, 0.00339669
1422.0, 0.000238959
1424.0, 0.00202988
1426.0, 0.00176914
1428.0, 0.00155905
1430.0, 0.00191998
1432.0, 0.00230184
1434.0, 0.00231124
1436.0, 0.000722329
1438.0, 0.00147483
1440.0, 0.00140569
1442.0, 0.00265306
1444.0, 0.00115437
1446.0, 0.0019965
1448.0, 0.0011665
1450.0, 0.00203625
1452.0, 0.000510073
1454.0, 0.00221119
1456.0, 0.00155572
1458.0, 0.00107001
1460.0, 0.00122148
1462.0, 0.00162688
1464.0, 0.00212834
1466.0, 0.000777718
1468.0, 0.00092223
1470.0, 0.00160157
1472.0, 0.00253283
1474.0, 0.00116936
1476.0, 0.00250028
1478.0, 0.00100993
1480.0, 0.0018373
1482.0, 0.00186192
1484.0, 0.00214766
1486.0, 0.00371825
1488.0, 0.00229563
1490.0, 0.000531061
1492.0, 0.000290545
1494.0, 6.89968e-05
1496.0, 0.0016695
1498.0, 0.00279232
1500.0, 0.00262787
1502.0, 0.00358784
1504.0, 0.00223457
1506.0, 0.00497599
1508.0, 0.00314372
1510.0, 0.0013755
1512.0, 0.00345498
1514.0, 0.0028293
1516.0, 0.00155127
1518.0, 0.00282084
1520.0, 0.00357754
1522.0, 0.00393287
1524.0, 0.00362885
1526.0, 0.00262453
1528.0, 0.00344836
1530.0, 0.00342306
1532.0, 0.00411266
1534.0, 0.00336195
1536.0, 0.00360224
1538.0, 0.00270549
1540.0, 0.00303342
1542.0, 0.00298299
1544.0, 0.00400925
1546.0, 0.00112994
1548.0, 0.00277537
1550.0, 0.00346597
1552.0, 0.00176639
1554.0, 0.00461279
1556.0, 0.00615149
1558.0, 0.00228029
1560.0, 0.000294715
1562.0, 0.00148931
1564.0, 0.00154883
1566.0, 0.00189249
1568.0, 0.00287045
1570.0, 5.61463e-06
1572, 0.0
1574, 0.0
1576, 0.0
1578, 0.0
1580, 0.0
1582, 0.0
1584, 0.0
1586, 0.0
1588, 0.0
1590, 0.0
1592, 0.0
1594, 0.0
1596, 0.0
1598, 0.0
1599, 0.0