File: raw data/Dataset_2/Ferroactinolite/Ferroactinolite__R060189-3__Raman__514__0__ccw__Raman_Data_Processed__13250.txt
30, 0.0
32, 0.0
34, 0.0
36, 0.0
38, 0.0
40, 0.0
42, 0.0
44, 0.0
46, 0.0
48, 0.0
50, 0.0
52, 0.0
54, 0.0
56, 0.0
58, 0.0
60, 0.0
62, 0.0
64, 0.0
66, 0.0
68, 0.0
70, 0.0
72, 0.0
74, 0.0
76, 0.0
78, 0.0
80, 0.0
82, 0.0
84, 0.0
86, 0.0
88, 0.0
90, 0.0
92, 0.0
94, 0.0
96.0, 0.000332136
98.0, 0.00294686
100.0, 0.00455056
102.0, 0.00290616
104.0, 0.00458097
106.0, 0.0304133
108.0, 0.0779754
110.0, 0.123048
112.0, 0.0737417
114.0, 0.0402551
116.0, 0.0524644
118.0, 0.0497628
120.0, 0.0208554
122.0, 0.0122751
124.0, 0.0311543
126.0, 0.0240031
128.0, 0.0234133
130.0, 0.0463996
132.0, 0.0518237
134.0, 0.0446024
136.0, 0.048994
138.0, 0.0687115
140.0, 0.103531
142.0, 0.156663
144.0, 0.212884
146.0, 0.278923
148.0, 0.308546
150.0, 0.254149
152.0, 0.175786
154.0, 0.119198
156.0, 0.076539
158.0, 0.0522054
160.0, 0.0429018
162.0, 0.0511618
164.0, 0.0710495
166.0, 0.102256
168.0, 0.138954
170.0, 0.178749
172.0, 0.207831
174.0, 0.185808
176.0, 0.147783
178.0, 0.105587
180.0, 0.0810856
182.0, 0.0665376
184.0, 0.05621
186.0, 0.0606308
188.0, 0.0762062
190.0, 0.0893428
192.0, 0.114917
194.0, 0.137439
196.0, 0.165558
198.0, 0.189441
200.0, 0.216649
202.0, 0.258388
204.0, 0.294493
206.0, 0.278006
208.0, 0.287902
210.0, 0.326847
212.0, 0.366865
214.0, 0.391757
216.0, 0.408487
218.0, 0.388621
220.0, 0.367529
222.0, 0.341026
224.0, 0.308121
226.0, 0.283688
228.0, 0.262805
230.0, 0.222832
232.0, 0.198236
234.0, 0.177414
236.0, 0.156342
238.0, 0.137217
240.0, 0.11441
242.0, 0.100392
244.0, 0.0805926
246.0, 0.0739484
248.0, 0.0603651
250.0, 0.0496944
252.0, 0.0413437
254.0, 0.0295801
256.0, 0.026466
258.0, 0.0200269
260.0, 0.0218429
262.0, 0.0235861
264.0, 0.00702848
266.0, 0.000107228
268.0, 0.000972127
270.0, 0.00153206
272.0, 0.0033318
274.0, 0.00289142
276.0, 0.00124763
278.0, 0.0030454
280.0, 0.00171259
282.0, 0.00145229
284.0, 0.0107242
286.0, 0.0115012
288.0, 0.0103509
290.0, 0.00786792
292.0, 0.0084303
294.0, 0.00986102
296.0, 0.0110569
298.0, 0.0125515
300.0, 0.0098177
302.0, 0.011274
304.0, 0.0139914
306.0, 0.00978953
308.0, 0.00829525
310.0, 0.0113213
312.0, 0.00944395
314.0, 0.0141309
316.0, 0.011019
318.0, 0.0111848
320.0, 0.0188468
322.0, 0.0188003
324.0, 0.0272648
326.0, 0.0300515
328.0, 0.0378522
330.0, 0.0422204
332.0, 0.0499627
334.0, 0.0538057
336.0, 0.0607581
338.0, 0.0673466
340.0, 0.0786364
342.0, 0.0869422
344.0, 0.0894662
346.0, 0.0913636
348.0, 0.0975262
350.0, 0.108921
352.0, 0.117105
354.0, 0.124564
356.0, 0.127663
358.0, 0.131429
360.0, 0.131432
362.0, 0.132446
364.0, 0.133607
366.0, 0.124183
368.0, 0.123269
370.0, 0.132979
372.0, 0.13922
374.0, 0.156463
376.0, 0.173794
378.0, 0.190326
380.0, 0.198655
382.0, 0.20085
384.0, 0.194841
386.0, 0.186441
388.0, 0.173312
390.0, 0.155612
392.0, 0.140405
394.0, 0.125884
396.0, 0.115835
398.0, 0.102603
400.0, 0.0930225
402.0, 0.0834453
404.0, 0.0763419
406.0, 0.0662946
408.0, 0.0585981
410.0, 0.0493031
412.0, 0.0408307
414.0, 0.0399785
416.0, 0.0314811
418.0, 0.0302974
420.0, 0.0316476
422.0, 0.0408058
424.0, 0.0537014
426.0, 0.0692892
428.0, 0.0863013
430.0, 0.0966126
432.0, 0.0955065
434.0, 0.0803752
436.0, 0.0597748
438.0, 0.038259
440.0, 0.0248791
442.0, 0.013296
444.0, 0.0110219
446.0, 0.00486365
448.0, 0.00240401
450.0, 0.00126868
452.0, 0.00148557
454.0, 0.00782185
456.0, 0.00531869
458.0, 0.00749724
460.0, 0.00519
462.0, 0.00746039
464.0, 0.00686589
466.0, 0.00548687
468.0, 0.00556983
470.0, 0.00242682
472.0, 0.0014583
474.0, 0.000369313
476.0, 0.00209298
478.0, 0.00481668
480.0, 0.00657132
482.0, 0.00803925
484.0, 0.00662014
486.0, 0.0201999
488.0, 0.0201609
490.0, 0.0278134
492.0, 0.0381345
494.0, 0.0426765
496.0, 0.0488333
498.0, 0.0648347
500.0, 0.0679002
502.0, 0.0818053
504.0, 0.0883152
506.0, 0.096711
508.0, 0.103858
510.0, 0.11258
512.0, 0.118635
514.0, 0.13023
516.0, 0.135086
518.0, 0.144894
520.0, 0.14857
522.0, 0.144202
524.0, 0.144014
526.0, 0.137745
528.0, 0.127266
530.0, 0.118783
532.0, 0.113935
534.0, 0.102453
536.0, 0.0953952
538.0, 0.095642
540.0, 0.0907104
542.0, 0.0862607
544.0, 0.0810437
546.0, 0.0787529
548.0, 0.0718387
550.0, 0.0689334
552.0, 0.0669167
554.0, 0.0650013
556.0, 0.0650439
558.0, 0.059791
560.0, 0.0621605
562.0, 0.0619902
564.0, 0.0602741
566.0, 0.0563835
568.0, 0.0574635
570.0, 0.0502839
572.0, 0.048761
574.0, 0.0426334
576.0, 0.0374726
578.0, 0.027816
580.0, 0.0235332
582.0, 0.0186048
584.0, 0.0167188
586.0, 0.0112211
588.0, 0.00867589
590.0, 0.00558791
592.0, 0.00159926
594.0, 0.00224552
596.0, 0.00131245
598.0, 0.000604067
600.0, 0.000658852
602.0, 0.00301432
604.0, 0.00111838
606.0, 0.00202928
608.0, 0.00275064
610.0, 0.00244109
612.0, 0.00427882
614.0, 0.0067161
616.0, 0.0045657
618.0, 0.00986419
620.0, 0.0132236
622.0, 0.0192309
624.0, 0.0225619
626.0, 0.0257023
628.0, 0.0344073
630.0, 0.0409676
632.0, 0.0515458
634.0, 0.0613734
636.0, 0.0730669
638.0, 0.0886072
640.0, 0.0980615
642.0, 0.112472
644.0, 0.127227
646.0, 0.150664
648.0, 0.175893
650.0, 0.212905
652.0, 0.253917
654.0, 0.32444
656.0, 0.415288
658.0, 0.539457
660.0, 0.675418
662.0, 0.83237
664.0, 0.957361
666.0, 0.998832
668.0, 0.935187
670.0, 0.783654
672.0, 0.621202
674.0, 0.477288
676.0, 0.371212
678.0, 0.288488
680.0, 0.235787
682.0, 0.196817
684.0, 0.163255
686.0, 0.13689
688.0, 0.120235
690.0, 0.103303
692.0, 0.0878379
694.0, 0.0715088
696.0, 0.0687378
698.0, 0.0585206
700.0, 0.05478
702.0, 0.0498768
704.0, 0.0456959
706.0, 0.0447304
708.0, 0.0382616
710.0, 0.0413953
712.0, 0.0374022
714.0, 0.0353371
716.0, 0.0355027
718.0, 0.0349494
720.0, 0.0338149
722.0, 0.0356262
724.0, 0.0370907
726.0, 0.0381675
728.0, 0.0466254
730.0, 0.0508626
732.0, 0.0512522
734.0, 0.0544242
736.0, 0.056522
738.0, 0.05826
740.0, 0.0552889
742.0, 0.0580779
744.0, 0.0479205
746.0, 0.0428704
748.0, 0.0380776
750.0, 0.0343518
752.0, 0.0302064
754.0, 0.0280132
756.0, 0.0253731
758.0, 0.0238939
760.0, 0.0215566
762.0, 0.0199873
764.0, 0.0185581
766.0, 0.0174644
768.0, 0.0163574
770.0, 0.0146922
772.0, 0.0137253
774.0, 0.00692656
776.0, 0.00718796
778.0, 0.00738192
780.0, 0.00708615
782.0, 0.00533544
784.0, 0.00530474
786.0, 0.000976823
788.0, 0.00101212
790.0, 0.00139358
792.0, 0.00149594
794.0, 0.00133672
796.0, 0.00090226
798.0, 0.000416455
800.0, 0.0029114
802.0, 0.00842555
804.0, 0.00420292
806.0, 0.00320182
808.0, 0.000785669
810.0, 0.00389992
812.0, 0.00469341
814.0, 0.00209426
816.0, 0.00339172
818.0, 0.0013241
820.0, 0.00420279
822.0, 0.00184615
824.0, 0.00123876
826.0, 0.00235108
828.0, 0.00694931
830.0, 0.000560747
832.0, 0.00216196
834.0, 0.00210751
836.0, 0.00268505
838.0, 0.00684428
840.0, 0.00396904
842.0, 0.002266
844.0, 0.006063
846.0, 0.00497245
848.0, 0.00920027
850.0, 0.00837254
852.0, 0.0105454
854.0, 0.0102587
856.0, 0.0116511
858.0, 0.0112896
860.0, 0.0142898
862.0, 0.0156747
864.0, 0.0199436
866.0, 0.0162021
868.0, 0.0147624
870.0, 0.0175511
872.0, 0.0205289
874.0, 0.0227052
876.0, 0.0270298
878.0, 0.0312847
880.0, 0.0313283
882.0, 0.0345866
884.0, 0.0343154
886.0, 0.0357091
888.0, 0.0409734
890.0, 0.0468058
892.0, 0.0517438
894.0, 0.0583788
896.0, 0.0605098
898.0, 0.0641984
900.0, 0.0659645
902.0, 0.0674132
904.0, 0.0719185
906.0, 0.073538
908.0, 0.0759946
910.0, 0.0803148
912.0, 0.0897783
914.0, 0.0980802
916.0, 0.106608
918.0, 0.116165
920.0, 0.123312
922.0, 0.131158
924.0, 0.135805
926.0, 0.13265
928.0, 0.128157
930.0, 0.119662
932.0, 0.110334
934.0, 0.101527
936.0, 0.095289
938.0, 0.0905512
940.0, 0.0892885
942.0, 0.0907455
944.0, 0.0883983
946.0, 0.0917359
948.0, 0.0903474
950.0, 0.087279
952.0, 0.0839393
954.0, 0.0898899
956.0, 0.088939
958.0, 0.088637
960.0, 0.0870743
962.0, 0.0904874
964.0, 0.0881845
966.0, 0.091013
968.0, 0.0931242
970.0, 0.0923294
972.0, 0.0910697
974.0, 0.0911844
976.0, 0.0876349
978.0, 0.0917787
980.0, 0.0895925
982.0, 0.0949309
984.0, 0.0954736
986.0, 0.104201
988.0, 0.106265
990.0, 0.106948
992.0, 0.110282
994.0, 0.120082
996.0, 0.126634
998.0, 0.134185
1000.0, 0.143589
1002.0, 0.157598
1004.0, 0.170432
1006.0, 0.182115
1008.0, 0.196676
1010.0, 0.221814
1012.0, 0.240945
1014.0, 0.259321
1016.0, 0.275996
1018.0, 0.301092
1020.0, 0.325854
1022.0, 0.334786
1024.0, 0.330447
1026.0, 0.308774
1028.0, 0.292145
1030.0, 0.266586
1032.0, 0.247977
1034.0, 0.243408
1036.0, 0.2484
1038.0, 0.262914
1040.0, 0.282113
1042.0, 0.30168
1044.0, 0.320707
1046.0, 0.330904
1048.0, 0.330593
1050.0, 0.320523
1052.0, 0.310585
1054.0, 0.309333
1056.0, 0.297421
1058.0, 0.29933
1060.0, 0.295641
1062.0, 0.27774
1064.0, 0.24041
1066.0, 0.202558
1068.0, 0.163457
1070.0, 0.132239
1072.0, 0.112868
1074.0, 0.0974686
1076.0, 0.0857668
1078.0, 0.0775178
1080.0, 0.0676541
1082.0, 0.0668593
1084.0, 0.0609486
1086.0, 0.0536841
1088.0, 0.0526079
1090.0, 0.049042
1092.0, 0.0437401
1094.0, 0.0431612
1096.0, 0.0421286
1098.0, 0.0431033
1100.0, 0.0395506
1102.0, 0.0389046
1104.0, 0.0409295
1106.0, 0.0400356
1108.0, 0.035735
1110.0, 0.0351433
1112.0, 0.0307065
1114.0, 0.0332406
1116.0, 0.0310533
1118.0, 0.0360839
1120.0, 0.0365358
1122.0, 0.0410255
1124.0, 0.0400673
1126.0, 0.035926
1128.0, 0.0323467
1130.0, 0.0269797
1132.0, 0.0201314
1134.0, 0.0163928
1136.0, 0.0125441
1138.0, 0.00998004
1140.0, 0.010332
1142.0, 0.00525766
1144.0, 0.00288083
1146.0, 0.00228034
1148.0, 0.00313427
1150.0, 0.000475467
1152.0, 0.0027203
1154.0, 0.00260897
1156.0, 0.00371958
1158.0, 0.00023239
1160.0, 0.000110742
1162.0, 0.000906474
1164.0, 0.00149103
1166.0, 0.000193894
1168.0, 0.00106685
1170.0, 0.000256514
1172.0, 0.000380948
1174.0, 0.0019663
1176.0, 0.00379168
1178.0, 0.00368599
1180.0, 0.00233798
1182.0, 0.00129243
1184.0, 0.001997
1186.0, 0.0010101
1188.0, 0.0030646
1190.0, 0.00129699
1192.0, 0.00139727
1194.0, 0.00162949
1196.0, 0.00335563
1198.0, 0.00285244
1200.0, 0.00307344
1202.0, 0.00128526
1204.0, 0.0011452
1206.0, 0.00159643
1208.0, 0.00244899
1210.0, 0.0012098
1212.0, 0.00343562
1214.0, 0.000448004
1216.0, 0.000983793
1218.0, 0.000447173
1220.0, 0.00166319
1222.0, 0.00356906
1224.0, 0.00146978
1226.0, 0.0014823
1228.0, 0.000375775
1230.0, 0.000465948
1232.0, 0.00141857
1234.0, 0.0017417
1236.0, 0.0024338
1238.0, 0.00747822
1240.0, 0.00527356
1242.0, 0.00492873
1244.0, 0.0059849
1246.0, 0.00889056
1248.0, 0.00779299
1250.0, 0.00604789
1252.0, 0.00601986
1254.0, 0.010863
1256.0, 0.00554914
1258.0, 0.00717286
1260.0, 0.00469679
1262.0, 0.00920608
1264.0, 0.0115651
1266.0, 0.0105383
1268.0, 0.00930234
1270.0, 0.00885878
1272.0, 0.00815332
1274.0, 0.00936049
1276.0, 0.0112726
1278.0, 0.0104316
1280.0, 0.0103731
1282.0, 0.00971602
1284.0, 0.0109888
1286.0, 0.00884126
1288.0, 0.0111191
1290.0, 0.01344
1292.0, 0.0111558
1294.0, 0.00999102
1296.0, 0.00963334
1298.0, 0.00679477
1300.0, 0.0108871
1302.0, 0.0128837
1304.0, 0.0130755
1306.0, 0.0109917
1308.0, 0.0135521
1310.0, 0.0117854
1312.0, 0.00697948
1314.0, 0.012835
1316.0, 0.0130683
1318.0, 0.0146905
1320.0, 0.0165236
1322.0, 0.00975346
1324.0, 0.00869155
1326.0, 0.00808613
1328.0, 0.0125407
1330.0, 0.014513
1332.0, 0.0118092
1334.0, 0.00874818
1336.0, 0.00756853
1338.0, 0.00918378
1340.0, 0.0116324
1342.0, 0.0125928
1344.0, 0.0143492
1346.0, 0.0136899
1348.0, 0.00906037
1350.0, 0.00777723
1352.0, 0.00956788
1354.0, 0.00884746
1356.0, 0.00755148
1358.0, 0.0119748
1360.0, 0.0111957
1362.0, 0.010723
1364.0, 0.0123443
1366.0, 0.0112636
1368.0, 0.00837861
1370.0, 0.00461416
1372.0, 0.011578
1374.0, 0.0100873
1376.0, 0.00749722
1378.0, 0.00898022
1380.0, 0.00548387
1382.0, 0.00936786
1384.0, 0.0123491
1386.0, 0.00909392
1388.0, 0.00859001
1390.0, 0.00460237
1392.0, 0.0072234
1394.0, 0.0096712
1396.0, 0.00730248
1398.0, 0.00878263
1400.0, 0.00818707
1402.0, 0.0065027
1404.0, 0.0085998
1406.0, 0.00320176
1408.0, 0.00494627
1410.0, 0.00436217
1412.0, 0.00591556
1414.0, 0.00528579
1416.0, 0.00415164
1418.0, 0.00279132
1420.0, 0.00357179
1422.0, 0.00389198
1424.0, 0.00671707
1426.0, 0.000897848
1428.0, 0.00530251
1430.0, 0.00163633
1432.0, 0.00426834
1434.0, 0.00385888
1436.0, 0.00472946
1438.0, 0.00535274
1440.0, 0.00731031
1442.0, 0.000925179
1444.0, 0.00364767
1446.0, 0.00332081
1448.0, 0.00152782
1450.0, 0.00249388
1452.0, 0.00275045
1454.0, 0.00262942
1456.0, 0.000964766
1458.0, 0.00151806
1460.0, 0.00150791
1462.0, 0.000591712
1464.0, 0.0027242
1466.0, 0.00327687
1468.0, 0.000353758
1470.0, 0.00122459
1472.0, 0.00135274
1474.0, 0.0056644
1476.0, 0.00545879
1478.0, 0.00641964
1480.0, 0.00275842
1482.0, 0.00215553
1484.0, 0.00371127
1486.0, 0.00334416
1488.0, 0.00789168
1490.0, 0.00935609
1492.0, 0.00871109
1494.0, 0.00420288
1496.0, 0.00268615
1498.0, 0.00577128
1500.0, 0.00541435
1502.0, 0.00757431
1504.0, 0.00784962
1506.0, 0.0104652
1508.0, 0.00897241
1510.0, 0.0102792
1512.0, 0.0069067
1514.0, 0.012425
1516.0, 0.00847174
1518.0, 0.00838835
1520.0, 0.00640382
1522.0, 0.00881863
1524.0, 0.0115
1526.0, 0.0123139
1528.0, 0.011373
1530.0, 0.00974751
1532.0, 0.00829469
1534.0, 0.00967154
1536.0, 0.00830481
1538.0, 0.00334903
1540.0, 0.00617148
1542.0, 0.00640307
1544.0, 0.0103066
1546.0, 0.0105054
1548.0, 0.00629799
1550.0, 0.00838421
1552.0, 0.00929406
1554.0, 0.0157434
1556.0, 0.0176278
1558.0, 0.0106908
1560.0, 0.00366499
1562.0, 0.000498734
1564.0, 0.00483383
1566.0, 0.000628171
1568.0, 0.00336105
1570.0, 0.00048406
1572, 0.0
1574, 0.0
1576, 0.0
1578, 0.0
1580, 0.0
1582, 0.0
1584, 0.0
1586, 0.0
1588, 0.0
1590, 0.0
1592, 0.0
1594, 0.0
1596, 0.0
1598, 0.0
1599, 0.0