File: raw data/Dataset_2/GlassHo/GlassHo__R110083__Raman__532__0__unoriented__Raman_Data_Processed__35504.txt
30, 0.0
32, 0.0
34, 0.0
36, 0.0
38, 0.0
40, 0.0
42, 0.0
44, 0.0
46, 0.0
48, 0.0
50, 0.0
52, 0.0
54, 0.0
56, 0.0
58, 0.0
60, 0.0
62, 0.0
64, 0.0
66, 0.0
68, 0.0
70, 0.0
72, 0.0
74, 0.0
76, 0.0
78, 0.0
80, 0.0
82, 0.0
84, 0.0
86, 0.0
88, 0.0
90, 0.0
92, 0.0
94, 0.0
96, 0.0
98, 0.0
100, 0.0
102, 0.0
104, 0.0
106, 0.0
108, 0.0
110, 0.0
112, 0.0
114, 0.0
116, 0.0
118, 0.0
120, 0.0
122, 0.0
124, 0.0
126, 0.0
128, 0.0
130, 0.0
132, 0.0
134, 0.0
136, 0.0
138, 0.0
140, 0.0
142, 0.0
144, 0.0
146, 0.0
148, 0.0
150, 0.0
152, 0.0
154, 0.0
156, 0.0
158, 0.0
160, 0.0
162, 0.0
164, 0.0
166, 0.0
168, 0.0
170, 0.0
172, 0.0
174, 0.0
176, 0.0
178, 0.0
180, 0.0
182, 0.0
184, 0.0
186.0, 0.437747
188.0, 0.440284
190.0, 0.446143
192.0, 0.452423
194.0, 0.458567
196.0, 0.463477
198.0, 0.470071
200.0, 0.472883
202.0, 0.47455
204.0, 0.474679
206.0, 0.476814
208.0, 0.477974
210.0, 0.479862
212.0, 0.480972
214.0, 0.483533
216.0, 0.486684
218.0, 0.488886
220.0, 0.49145
222.0, 0.493467
224.0, 0.496147
226.0, 0.495828
228.0, 0.497502
230.0, 0.499335
232.0, 0.501786
234.0, 0.505556
236.0, 0.506351
238.0, 0.506155
240.0, 0.508332
242.0, 0.509367
244.0, 0.509817
246.0, 0.512308
248.0, 0.513913
250.0, 0.515721
252.0, 0.518385
254.0, 0.519736
256.0, 0.522743
258.0, 0.524288
260.0, 0.526167
262.0, 0.527109
264.0, 0.527544
266.0, 0.5311
268.0, 0.533061
270.0, 0.535378
272.0, 0.537178
274.0, 0.54245
276.0, 0.54389
278.0, 0.546248
280.0, 0.547246
282.0, 0.548705
284.0, 0.547631
286.0, 0.547989
288.0, 0.550548
290.0, 0.553023
292.0, 0.555459
294.0, 0.559391
296.0, 0.56197
298.0, 0.565816
300.0, 0.568271
302.0, 0.571077
304.0, 0.572998
306.0, 0.575164
308.0, 0.577878
310.0, 0.581012
312.0, 0.583381
314.0, 0.585592
316.0, 0.589435
318.0, 0.592133
320.0, 0.595339
322.0, 0.597133
324.0, 0.599796
326.0, 0.601173
328.0, 0.604602
330.0, 0.608501
332.0, 0.611127
334.0, 0.615479
336.0, 0.620279
338.0, 0.624098
340.0, 0.627263
342.0, 0.629902
344.0, 0.631907
346.0, 0.63262
348.0, 0.6372
350.0, 0.640231
352.0, 0.645653
354.0, 0.650219
356.0, 0.655261
358.0, 0.658126
360.0, 0.661421
362.0, 0.665481
364.0, 0.669602
366.0, 0.672314
368.0, 0.676623
370.0, 0.680415
372.0, 0.685078
374.0, 0.688574
376.0, 0.692575
378.0, 0.696406
380.0, 0.699966
382.0, 0.703348
384.0, 0.709179
386.0, 0.713481
388.0, 0.718569
390.0, 0.722837
392.0, 0.725629
394.0, 0.729948
396.0, 0.735065
398.0, 0.739274
400.0, 0.744377
402.0, 0.749129
404.0, 0.753687
406.0, 0.759431
408.0, 0.764012
410.0, 0.768706
412.0, 0.773148
414.0, 0.777912
416.0, 0.782459
418.0, 0.786126
420.0, 0.789936
422.0, 0.793773
424.0, 0.797174
426.0, 0.803483
428.0, 0.807307
430.0, 0.812806
432.0, 0.81724
434.0, 0.820709
436.0, 0.824977
438.0, 0.828612
440.0, 0.833722
442.0, 0.839512
444.0, 0.843349
446.0, 0.848597
448.0, 0.854223
450.0, 0.857989
452.0, 0.859239
454.0, 0.863526
456.0, 0.86763
458.0, 0.87287
460.0, 0.87828
462.0, 0.882219
464.0, 0.88579
466.0, 0.888184
468.0, 0.890501
470.0, 0.893944
472.0, 0.899436
474.0, 0.901745
476.0, 0.90543
478.0, 0.909665
480.0, 0.913347
482.0, 0.916788
484.0, 0.921435
486.0, 0.924243
488.0, 0.92637
490.0, 0.93079
492.0, 0.93361
494.0, 0.937076
496.0, 0.941366
498.0, 0.94431
500.0, 0.945986
502.0, 0.947695
504.0, 0.950279
506.0, 0.952436
508.0, 0.953729
510.0, 0.958047
512.0, 0.960016
514.0, 0.962067
516.0, 0.962118
518.0, 0.963093
520.0, 0.964607
522.0, 0.96704
524.0, 0.970567
526.0, 0.974074
528.0, 0.97611
530.0, 0.976424
532.0, 0.977659
534.0, 0.978111
536.0, 0.977585
538.0, 0.979436
540.0, 0.98191
542.0, 0.981672
544.0, 0.982853
546.0, 0.984903
548.0, 0.987612
550.0, 0.989099
552.0, 0.989317
554.0, 0.990403
556.0, 0.988507
558.0, 0.989786
560.0, 0.990162
562.0, 0.988912
564.0, 0.989444
566.0, 0.990031
568.0, 0.989494
570.0, 0.991602
572.0, 0.990715
574.0, 0.990312
576.0, 0.992231
578.0, 0.99388
580.0, 0.99566
582.0, 0.998277
584.0, 0.996032
586.0, 0.994712
588.0, 0.998488
590.0, 0.99707
592.0, 0.997439
594.0, 0.999793
596.0, 0.998349
598.0, 0.997452
600.0, 0.997643
602.0, 0.995224
604.0, 0.995501
606.0, 0.995488
608.0, 0.997578
610.0, 0.99769
612.0, 0.997584
614.0, 0.997605
616.0, 0.996
618.0, 0.996597
620.0, 0.996467
622.0, 0.994574
624.0, 0.993047
626.0, 0.991345
628.0, 0.989095
630.0, 0.989621
632.0, 0.990087
634.0, 0.990072
636.0, 0.990385
638.0, 0.989105
640.0, 0.988219
642.0, 0.986382
644.0, 0.983668
646.0, 0.983437
648.0, 0.982361
650.0, 0.980769
652.0, 0.977782
654.0, 0.979445
656.0, 0.977659
658.0, 0.974598
660.0, 0.975539
662.0, 0.969995
664.0, 0.967882
666.0, 0.963934
668.0, 0.960819
670.0, 0.960704
672.0, 0.955807
674.0, 0.95464
676.0, 0.951316
678.0, 0.948285
680.0, 0.946172
682.0, 0.944919
684.0, 0.940144
686.0, 0.936596
688.0, 0.933499
690.0, 0.929661
692.0, 0.925897
694.0, 0.919921
696.0, 0.915585
698.0, 0.91194
700.0, 0.906435
702.0, 0.898051
704.0, 0.892225
706.0, 0.888083
708.0, 0.883582
710.0, 0.878607
712.0, 0.872247
714.0, 0.864698
716.0, 0.856141
718.0, 0.849767
720.0, 0.842347
722.0, 0.835213
724.0, 0.831178
726.0, 0.823273
728.0, 0.818478
730.0, 0.811095
732.0, 0.802392
734.0, 0.794486
736.0, 0.785124
738.0, 0.775809
740.0, 0.766918
742.0, 0.757302
744.0, 0.74853
746.0, 0.740438
748.0, 0.730811
750.0, 0.721728
752.0, 0.715471
754.0, 0.706714
756.0, 0.697622
758.0, 0.688163
760.0, 0.677083
762.0, 0.666539
764.0, 0.656423
766.0, 0.646348
768.0, 0.637955
770.0, 0.625963
772.0, 0.616144
774.0, 0.607661
776.0, 0.597053
778.0, 0.586511
780.0, 0.576763
782.0, 0.566533
784.0, 0.556373
786.0, 0.546057
788.0, 0.534634
790.0, 0.525536
792.0, 0.515685
794.0, 0.507637
796.0, 0.497063
798.0, 0.487161
800.0, 0.476011
802.0, 0.467998
804.0, 0.4574
806.0, 0.449359
808.0, 0.440072
810.0, 0.43186
812.0, 0.422331
814.0, 0.413268
816.0, 0.405331
818.0, 0.396573
820.0, 0.389026
822.0, 0.37973
824.0, 0.372179
826.0, 0.362429
828.0, 0.353593
830.0, 0.347039
832.0, 0.3393
834.0, 0.330979
836.0, 0.324506
838.0, 0.316339
840.0, 0.31029
842.0, 0.302252
844.0, 0.295847
846.0, 0.288954
848.0, 0.282638
850.0, 0.275495
852.0, 0.269658
854.0, 0.263874
856.0, 0.257705
858.0, 0.25268
860.0, 0.246759
862.0, 0.240994
864.0, 0.234967
866.0, 0.228369
868.0, 0.22373
870.0, 0.218649
872.0, 0.214824
874.0, 0.209316
876.0, 0.204966
878.0, 0.199145
880.0, 0.194444
882.0, 0.190075
884.0, 0.186456
886.0, 0.181824
888.0, 0.17801
890.0, 0.174396
892.0, 0.169947
894.0, 0.165913
896.0, 0.162486
898.0, 0.158036
900.0, 0.154308
902.0, 0.151201
904.0, 0.14747
906.0, 0.144539
908.0, 0.141248
910.0, 0.137723
912.0, 0.1346
914.0, 0.131618
916.0, 0.128578
918.0, 0.126108
920.0, 0.123012
922.0, 0.119794
924.0, 0.117244
926.0, 0.114454
928.0, 0.112058
930.0, 0.109433
932.0, 0.106418
934.0, 0.10378
936.0, 0.101348
938.0, 0.0995995
940.0, 0.0968961
942.0, 0.0948321
944.0, 0.0926508
946.0, 0.0904286
948.0, 0.088502
950.0, 0.0864792
952.0, 0.0849635
954.0, 0.0829772
956.0, 0.081133
958.0, 0.0791219
960.0, 0.0773209
962.0, 0.0757816
964.0, 0.074151
966.0, 0.0727547
968.0, 0.0707262
970.0, 0.0692893
972.0, 0.0678667
974.0, 0.066238
976.0, 0.0647257
978.0, 0.0632474
980.0, 0.0620641
982.0, 0.0604984
984.0, 0.05919
986.0, 0.0577684
988.0, 0.0565972
990.0, 0.0557166
992.0, 0.0541091
994.0, 0.0530418
996.0, 0.0519321
998.0, 0.0507203
1000.0, 0.0496166
1002.0, 0.0489526
1004.0, 0.0480355
1006.0, 0.046544
1008.0, 0.0457993
1010.0, 0.0446838
1012.0, 0.0438529
1014.0, 0.0426675
1016.0, 0.0419286
1018.0, 0.0410137
1020.0, 0.040078
1022.0, 0.039357
1024.0, 0.0386182
1026.0, 0.0375518
1028.0, 0.0371577
1030.0, 0.0360549
1032.0, 0.0353236
1034.0, 0.0345996
1036.0, 0.0341535
1038.0, 0.0335029
1040.0, 0.0325432
1042.0, 0.0318792
1044.0, 0.0313947
1046.0, 0.0305981
1048.0, 0.0298218
1050.0, 0.0293682
1052.0, 0.0289096
1054.0, 0.0281634
1056.0, 0.0278947
1058.0, 0.0271754
1060.0, 0.0268342
1062.0, 0.0258253
1064.0, 0.0256338
1066.0, 0.0249698
1068.0, 0.0245898
1070.0, 0.0236988
1072.0, 0.0231125
1074.0, 0.0228923
1076.0, 0.0223518
1078.0, 0.0219658
1080.0, 0.0215575
1082.0, 0.0211061
1084.0, 0.0207197
1086.0, 0.020471
1088.0, 0.0198053
1090.0, 0.0194899
1092.0, 0.0191247
1094.0, 0.0187751
1096.0, 0.0182872
1098.0, 0.0181333
1100.0, 0.017818
1102.0, 0.0173253
1104.0, 0.0168635
1106.0, 0.0167487
1108.0, 0.016173
1110.0, 0.0158707
1112.0, 0.0155391
1114.0, 0.0154011
1116.0, 0.0149161
1118.0, 0.0146768
1120.0, 0.0144307
1122.0, 0.0141156
1124.0, 0.0136961
1126.0, 0.0135136
1128.0, 0.0130817
1130.0, 0.0127502
1132.0, 0.0125301
1134.0, 0.0122577
1136.0, 0.0123162
1138.0, 0.0118951
1140.0, 0.0116094
1142.0, 0.0113654
1144.0, 0.0110252
1146.0, 0.0107688
1148.0, 0.010575
1150.0, 0.0105691
1152.0, 0.0102121
1154.0, 0.00981967
1156.0, 0.00959841
1158.0, 0.00951347
1160.0, 0.00925456
1162.0, 0.00914688
1164.0, 0.00887749
1166.0, 0.00860851
1168.0, 0.00842693
1170.0, 0.00824574
1172.0, 0.00810793
1174.0, 0.0079688
1176.0, 0.0078139
1178.0, 0.00743589
1180.0, 0.00726688
1182.0, 0.00722865
1184.0, 0.00702827
1186.0, 0.00678877
1188.0, 0.0067002
1190.0, 0.0064073
1192.0, 0.00627785
1194.0, 0.00617705
1196.0, 0.00597731
1198.0, 0.00593423
1200.0, 0.00572911
1202.0, 0.0056087
1204.0, 0.00534206
1206.0, 0.00525139
1208.0, 0.00502481
1210.0, 0.00503425
1212.0, 0.00478131
1214.0, 0.00476175
1216.0, 0.00457496
1218.0, 0.00441498
1220.0, 0.00407212
1222.0, 0.00398558
1224.0, 0.00396392
1226.0, 0.00394105
1228.0, 0.00375234
1230.0, 0.00361376
1232.0, 0.00340686
1234.0, 0.00323473
1236.0, 0.0032091
1238.0, 0.00298159
1240.0, 0.00291427
1242.0, 0.00273711
1244.0, 0.00283662
1246.0, 0.00260063
1248.0, 0.0025471
1250.0, 0.00241599
1252.0, 0.00231764
1254.0, 0.00224136
1256.0, 0.00207118
1258.0, 0.00205495
1260.0, 0.00203172
1262.0, 0.0017894
1264.0, 0.00163292
1266.0, 0.00148293
1268.0, 0.00155211
1270.0, 0.00150714
1272.0, 0.00134229
1274.0, 0.00139527
1276.0, 0.00122561
1278.0, 0.00100703
1280.0, 0.00105123
1282.0, 0.001008
1284.0, 0.00088811
1286.0, 0.000705058
1288.0, 0.000577752
1290.0, 0.000635392
1292.0, 0.000502354
1294.0, 0.000517565
1296.0, 0.000288562
1298.0, 0.000249164
1300.0, 0.000308513
1302.0, 9.01465e-06
1304, 0.0
1306, 0.0
1308, 0.0
1310, 0.0
1312, 0.0
1314, 0.0
1316, 0.0
1318, 0.0
1320, 0.0
1322, 0.0
1324, 0.0
1326, 0.0
1328, 0.0
1330, 0.0
1332, 0.0
1334, 0.0
1336, 0.0
1338, 0.0
1340, 0.0
1342, 0.0
1344, 0.0
1346, 0.0
1348, 0.0
1350, 0.0
1352, 0.0
1354, 0.0
1356, 0.0
1358, 0.0
1360, 0.0
1362, 0.0
1364, 0.0
1366, 0.0
1368, 0.0
1370, 0.0
1372, 0.0
1374, 0.0
1376, 0.0
1378, 0.0
1380, 0.0
1382, 0.0
1384, 0.0
1386, 0.0
1388, 0.0
1390, 0.0
1392, 0.0
1394, 0.0
1396, 0.0
1398, 0.0
1400, 0.0
1402, 0.0
1404, 0.0
1406, 0.0
1408, 0.0
1410, 0.0
1412, 0.0
1414, 0.0
1416, 0.0
1418, 0.0
1420, 0.0
1422, 0.0
1424, 0.0
1426, 0.0
1428, 0.0
1430, 0.0
1432, 0.0
1434, 0.0
1436, 0.0
1438, 0.0
1440, 0.0
1442, 0.0
1444, 0.0
1446, 0.0
1448, 0.0
1450, 0.0
1452, 0.0
1454, 0.0
1456, 0.0
1458, 0.0
1460, 0.0
1462, 0.0
1464, 0.0
1466, 0.0
1468, 0.0
1470, 0.0
1472, 0.0
1474, 0.0
1476, 0.0
1478, 0.0
1480, 0.0
1482, 0.0
1484, 0.0
1486, 0.0
1488, 0.0
1490, 0.0
1492, 0.0
1494, 0.0
1496, 0.0
1498, 0.0
1500, 0.0
1502, 0.0
1504, 0.0
1506, 0.0
1508, 0.0
1510, 0.0
1512, 0.0
1514, 0.0
1516, 0.0
1518, 0.0
1520, 0.0
1522, 0.0
1524, 0.0
1526, 0.0
1528, 0.0
1530, 0.0
1532, 0.0
1534, 0.0
1536, 0.0
1538, 0.0
1540, 0.0
1542, 0.0
1544, 0.0
1546, 0.0
1548, 0.0
1550, 0.0
1552, 0.0
1554, 0.0
1556, 0.0
1558, 0.0
1560, 0.0
1562, 0.0
1564, 0.0
1566, 0.0
1568, 0.0
1570, 0.0
1572, 0.0
1574, 0.0
1576, 0.0
1578, 0.0
1580, 0.0
1582, 0.0
1584, 0.0
1586, 0.0
1588, 0.0
1590, 0.0
1592, 0.0
1594, 0.0
1596, 0.0
1598, 0.0
1599, 0.0