File: raw data/Dataset_2/GlassHo/GlassHo__R110083__Raman__780__0__unoriented__Raman_Data_Processed__35505.txt
30, 0.0
32, 0.0
34, 0.0
36, 0.0
38, 0.0
40, 0.0
42, 0.0
44, 0.0
46, 0.0
48, 0.0
50, 0.0
52, 0.0
54, 0.0
56, 0.0
58, 0.0
60, 0.0
62, 0.0
64, 0.0
66, 0.0
68, 0.0
70, 0.0
72, 0.0
74, 0.0
76, 0.0
78, 0.0
80, 0.0
82, 0.0
84, 0.0
86, 0.0
88, 0.0
90, 0.0
92, 0.0
94, 0.0
96.0, 0.998236
98.0, 0.993659
100.0, 0.98036
102.0, 0.96401
104.0, 0.966368
106.0, 0.97376
108.0, 0.968884
110.0, 0.963524
112.0, 0.970143
114.0, 0.974159
116.0, 0.970049
118.0, 0.970586
120.0, 0.970821
122.0, 0.972528
124.0, 0.97027
126.0, 0.968098
128.0, 0.96379
130.0, 0.964225
132.0, 0.963587
134.0, 0.963663
136.0, 0.960245
138.0, 0.962498
140.0, 0.961642
142.0, 0.956116
144.0, 0.956755
146.0, 0.95729
148.0, 0.952985
150.0, 0.95335
152.0, 0.951109
154.0, 0.949172
156.0, 0.945523
158.0, 0.944236
160.0, 0.943324
162.0, 0.937162
164.0, 0.937135
166.0, 0.934097
168.0, 0.934424
170.0, 0.92971
172.0, 0.926572
174.0, 0.920678
176.0, 0.923924
178.0, 0.918865
180.0, 0.914115
182.0, 0.910876
184.0, 0.902896
186.0, 0.90106
188.0, 0.8958
190.0, 0.890585
192.0, 0.887613
194.0, 0.886465
196.0, 0.883528
198.0, 0.879444
200.0, 0.87291
202.0, 0.870606
204.0, 0.86414
206.0, 0.863551
208.0, 0.858842
210.0, 0.852071
212.0, 0.846888
214.0, 0.842194
216.0, 0.841811
218.0, 0.835982
220.0, 0.828661
222.0, 0.829435
224.0, 0.821753
226.0, 0.818248
228.0, 0.814779
230.0, 0.813286
232.0, 0.806779
234.0, 0.80598
236.0, 0.802855
238.0, 0.798791
240.0, 0.796992
242.0, 0.79694
244.0, 0.790338
246.0, 0.787284
248.0, 0.784066
250.0, 0.781485
252.0, 0.77732
254.0, 0.774398
256.0, 0.778274
258.0, 0.771126
260.0, 0.771374
262.0, 0.772999
264.0, 0.76925
266.0, 0.768656
268.0, 0.764815
270.0, 0.764524
272.0, 0.765175
274.0, 0.762879
276.0, 0.762002
278.0, 0.760418
280.0, 0.762906
282.0, 0.762172
284.0, 0.758688
286.0, 0.75971
288.0, 0.763267
290.0, 0.76256
292.0, 0.761972
294.0, 0.764761
296.0, 0.762316
298.0, 0.761624
300.0, 0.769041
302.0, 0.762519
304.0, 0.764716
306.0, 0.767152
308.0, 0.766192
310.0, 0.76975
312.0, 0.771124
314.0, 0.771446
316.0, 0.774514
318.0, 0.774622
320.0, 0.77401
322.0, 0.779533
324.0, 0.775715
326.0, 0.775196
328.0, 0.780557
330.0, 0.778303
332.0, 0.781007
334.0, 0.779436
336.0, 0.779593
338.0, 0.784354
340.0, 0.78275
342.0, 0.780926
344.0, 0.782317
346.0, 0.782267
348.0, 0.785504
350.0, 0.784947
352.0, 0.782339
354.0, 0.779848
356.0, 0.780134
358.0, 0.783869
360.0, 0.776753
362.0, 0.772944
364.0, 0.770828
366.0, 0.77226
368.0, 0.769367
370.0, 0.769004
372.0, 0.766301
374.0, 0.764224
376.0, 0.759381
378.0, 0.755728
380.0, 0.7523
382.0, 0.748983
384.0, 0.751563
386.0, 0.742334
388.0, 0.742011
390.0, 0.738617
392.0, 0.74078
394.0, 0.732339
396.0, 0.734995
398.0, 0.731435
400.0, 0.728744
402.0, 0.721683
404.0, 0.720057
406.0, 0.720813
408.0, 0.71911
410.0, 0.714687
412.0, 0.715517
414.0, 0.711666
416.0, 0.709225
418.0, 0.706331
420.0, 0.704851
422.0, 0.702186
424.0, 0.702725
426.0, 0.70041
428.0, 0.699811
430.0, 0.69932
432.0, 0.701286
434.0, 0.693204
436.0, 0.693012
438.0, 0.691577
440.0, 0.693355
442.0, 0.691499
444.0, 0.689256
446.0, 0.688136
448.0, 0.691151
450.0, 0.684342
452.0, 0.684162
454.0, 0.681871
456.0, 0.68295
458.0, 0.683059
460.0, 0.681732
462.0, 0.681933
464.0, 0.678345
466.0, 0.67959
468.0, 0.675985
470.0, 0.672536
472.0, 0.673261
474.0, 0.672002
476.0, 0.671279
478.0, 0.669045
480.0, 0.667075
482.0, 0.662638
484.0, 0.663058
486.0, 0.658632
488.0, 0.658509
490.0, 0.656795
492.0, 0.653352
494.0, 0.655636
496.0, 0.649063
498.0, 0.648709
500.0, 0.644896
502.0, 0.642746
504.0, 0.639675
506.0, 0.637677
508.0, 0.633394
510.0, 0.630347
512.0, 0.625655
514.0, 0.623521
516.0, 0.618922
518.0, 0.615478
520.0, 0.611602
522.0, 0.607747
524.0, 0.60075
526.0, 0.597185
528.0, 0.589704
530.0, 0.581869
532.0, 0.578964
534.0, 0.572558
536.0, 0.571752
538.0, 0.565621
540.0, 0.555966
542.0, 0.554643
544.0, 0.550082
546.0, 0.544951
548.0, 0.538833
550.0, 0.535037
552.0, 0.531285
554.0, 0.528526
556.0, 0.52096
558.0, 0.519066
560.0, 0.514505
562.0, 0.509208
564.0, 0.50832
566.0, 0.504346
568.0, 0.504113
570.0, 0.499775
572.0, 0.491561
574.0, 0.485781
576.0, 0.483182
578.0, 0.477206
580.0, 0.473565
582.0, 0.469479
584.0, 0.463101
586.0, 0.456122
588.0, 0.450868
590.0, 0.446128
592.0, 0.439133
594.0, 0.432275
596.0, 0.425864
598.0, 0.423652
600.0, 0.415392
602.0, 0.408214
604.0, 0.404356
606.0, 0.393529
608.0, 0.391674
610.0, 0.386043
612.0, 0.380471
614.0, 0.376304
616.0, 0.368474
618.0, 0.367325
620.0, 0.3629
622.0, 0.35646
624.0, 0.353397
626.0, 0.352707
628.0, 0.344341
630.0, 0.344873
632.0, 0.341602
634.0, 0.337805
636.0, 0.334917
638.0, 0.332397
640.0, 0.329693
642.0, 0.325912
644.0, 0.324998
646.0, 0.316445
648.0, 0.316642
650.0, 0.312745
652.0, 0.312174
654.0, 0.304569
656.0, 0.303182
658.0, 0.300968
660.0, 0.294848
662.0, 0.292059
664.0, 0.287516
666.0, 0.283093
668.0, 0.28078
670.0, 0.275603
672.0, 0.273502
674.0, 0.269797
676.0, 0.262384
678.0, 0.259864
680.0, 0.257736
682.0, 0.249453
684.0, 0.2462
686.0, 0.243519
688.0, 0.238454
690.0, 0.232913
692.0, 0.230404
694.0, 0.226925
696.0, 0.220862
698.0, 0.216375
700.0, 0.213322
702.0, 0.208825
704.0, 0.208274
706.0, 0.203402
708.0, 0.201968
710.0, 0.197022
712.0, 0.194
714.0, 0.190137
716.0, 0.187141
718.0, 0.185685
720.0, 0.181424
722.0, 0.178017
724.0, 0.17657
726.0, 0.175551
728.0, 0.170797
730.0, 0.165617
732.0, 0.167735
734.0, 0.164742
736.0, 0.16087
738.0, 0.160622
740.0, 0.155407
742.0, 0.153845
744.0, 0.149771
746.0, 0.152458
748.0, 0.148237
750.0, 0.14213
752.0, 0.145151
754.0, 0.141812
756.0, 0.139338
758.0, 0.137215
760.0, 0.134102
762.0, 0.133769
764.0, 0.131445
766.0, 0.129818
768.0, 0.129417
770.0, 0.124791
772.0, 0.123599
774.0, 0.121497
776.0, 0.117492
778.0, 0.118826
780.0, 0.118282
782.0, 0.116073
784.0, 0.113571
786.0, 0.109674
788.0, 0.10702
790.0, 0.10479
792.0, 0.104686
794.0, 0.100719
796.0, 0.100563
798.0, 0.0973397
800.0, 0.0966573
802.0, 0.0942506
804.0, 0.0922687
806.0, 0.0913801
808.0, 0.087634
810.0, 0.0870657
812.0, 0.0853616
814.0, 0.0832861
816.0, 0.0831459
818.0, 0.0814227
820.0, 0.0779893
822.0, 0.078901
824.0, 0.0790867
826.0, 0.077509
828.0, 0.0791836
830.0, 0.0786559
832.0, 0.0817501
834.0, 0.0779266
836.0, 0.0808042
838.0, 0.0818181
840.0, 0.0877143
842.0, 0.0858363
844.0, 0.0892204
846.0, 0.0931182
848.0, 0.0933023
850.0, 0.0986008
852.0, 0.103135
854.0, 0.102317
856.0, 0.108788
858.0, 0.112648
860.0, 0.113491
862.0, 0.119552
864.0, 0.12102
866.0, 0.125219
868.0, 0.130421
870.0, 0.136293
872.0, 0.137052
874.0, 0.14445
876.0, 0.143487
878.0, 0.147225
880.0, 0.151825
882.0, 0.1568
884.0, 0.15882
886.0, 0.161455
888.0, 0.167023
890.0, 0.169096
892.0, 0.173565
894.0, 0.176117
896.0, 0.177753
898.0, 0.184182
900.0, 0.186517
902.0, 0.19006
904.0, 0.193234
906.0, 0.195611
908.0, 0.199235
910.0, 0.204171
912.0, 0.205012
914.0, 0.210486
916.0, 0.216469
918.0, 0.217398
920.0, 0.21714
922.0, 0.222581
924.0, 0.222668
926.0, 0.225997
928.0, 0.229136
930.0, 0.232392
932.0, 0.235099
934.0, 0.23871
936.0, 0.24115
938.0, 0.2391
940.0, 0.244784
942.0, 0.244289
944.0, 0.245735
946.0, 0.249989
948.0, 0.249893
950.0, 0.252456
952.0, 0.254633
954.0, 0.253635
956.0, 0.257942
958.0, 0.258054
960.0, 0.261724
962.0, 0.258823
964.0, 0.263322
966.0, 0.258482
968.0, 0.265357
970.0, 0.2647
972.0, 0.26843
974.0, 0.26405
976.0, 0.26762
978.0, 0.26972
980.0, 0.269255
982.0, 0.272249
984.0, 0.270415
986.0, 0.270884
988.0, 0.270025
990.0, 0.271319
992.0, 0.273657
994.0, 0.271774
996.0, 0.275129
998.0, 0.273192
1000.0, 0.272476
1002.0, 0.274168
1004.0, 0.274281
1006.0, 0.269652
1008.0, 0.269559
1010.0, 0.270075
1012.0, 0.273309
1014.0, 0.267869
1016.0, 0.268313
1018.0, 0.264434
1020.0, 0.263873
1022.0, 0.265206
1024.0, 0.25709
1026.0, 0.261942
1028.0, 0.257252
1030.0, 0.254285
1032.0, 0.252235
1034.0, 0.24547
1036.0, 0.246333
1038.0, 0.241161
1040.0, 0.235936
1042.0, 0.235253
1044.0, 0.232824
1046.0, 0.23049
1048.0, 0.224269
1050.0, 0.218905
1052.0, 0.215166
1054.0, 0.209089
1056.0, 0.204468
1058.0, 0.201033
1060.0, 0.195561
1062.0, 0.189818
1064.0, 0.186093
1066.0, 0.183133
1068.0, 0.175975
1070.0, 0.171405
1072.0, 0.166044
1074.0, 0.161691
1076.0, 0.155081
1078.0, 0.149726
1080.0, 0.145925
1082.0, 0.139501
1084.0, 0.136659
1086.0, 0.13192
1088.0, 0.128594
1090.0, 0.120945
1092.0, 0.115496
1094.0, 0.112125
1096.0, 0.108027
1098.0, 0.105073
1100.0, 0.0990518
1102.0, 0.095302
1104.0, 0.0928979
1106.0, 0.0868473
1108.0, 0.0873981
1110.0, 0.0789601
1112.0, 0.0748769
1114.0, 0.0756512
1116.0, 0.0720941
1118.0, 0.0695678
1120.0, 0.0696885
1122.0, 0.0618665
1124.0, 0.0635887
1126.0, 0.0580224
1128.0, 0.055691
1130.0, 0.0561657
1132.0, 0.0554293
1134.0, 0.0506455
1136.0, 0.0483242
1138.0, 0.0467697
1140.0, 0.0463056
1142.0, 0.0436156
1144.0, 0.041677
1146.0, 0.0369576
1148.0, 0.0355989
1150.0, 0.0371987
1152.0, 0.0334836
1154.0, 0.0352519
1156.0, 0.0326102
1158.0, 0.0307005
1160.0, 0.0313927
1162.0, 0.0297804
1164.0, 0.0271385
1166.0, 0.0252104
1168.0, 0.0242854
1170.0, 0.0246264
1172.0, 0.0238934
1174.0, 0.0194813
1176.0, 0.0204887
1178.0, 0.0198553
1180.0, 0.0214485
1182.0, 0.0164956
1184.0, 0.0174547
1186.0, 0.0156324
1188.0, 0.0144806
1190.0, 0.0119717
1192.0, 0.013558
1194.0, 0.0140853
1196.0, 0.012615
1198.0, 0.0106383
1200.0, 0.0101224
1202.0, 0.0114444
1204.0, 0.0116581
1206.0, 0.00964577
1208.0, 0.0100299
1210.0, 0.0106196
1212.0, 0.0120623
1214.0, 0.00781508
1216.0, 0.00465443
1218.0, 0.00771011
1220.0, 0.00618746
1222.0, 0.00503582
1224.0, 0.00476294
1226.0, 0.00482154
1228.0, 0.00315729
1230.0, 0.0075563
1232.0, 0.00346091
1234.0, 0.00226164
1236.0, 0.00518281
1238.0, 0.00539418
1240.0, 0.00294249
1242.0, 0.0026188
1244.0, 0.00224504
1246.0, 0.00401893
1248.0, 0.00283909
1250.0, 0.00301871
1252.0, 0.00398122
1254.0, 0.00323316
1256.0, 0.00191423
1258.0, 0.00232486
1260.0, 0.00491203
1262.0, 0.00317034
1264.0, 0.00070974
1266.0, 0.00357523
1268.0, 0.00316768
1270.0, 0.0043726
1272.0, 0.00422719
1274.0, 0.00825039
1276.0, 0.00389955
1278.0, 0.00390599
1280.0, 0.00543714
1282.0, 0.00442161
1284.0, 0.00448032
1286, 0.0
1288, 0.0
1290, 0.0
1292, 0.0
1294, 0.0
1296, 0.0
1298, 0.0
1300, 0.0
1302, 0.0
1304, 0.0
1306, 0.0
1308, 0.0
1310, 0.0
1312, 0.0
1314, 0.0
1316, 0.0
1318, 0.0
1320, 0.0
1322, 0.0
1324, 0.0
1326, 0.0
1328, 0.0
1330, 0.0
1332, 0.0
1334, 0.0
1336, 0.0
1338, 0.0
1340, 0.0
1342, 0.0
1344, 0.0
1346, 0.0
1348, 0.0
1350, 0.0
1352, 0.0
1354, 0.0
1356, 0.0
1358, 0.0
1360, 0.0
1362, 0.0
1364, 0.0
1366, 0.0
1368, 0.0
1370, 0.0
1372, 0.0
1374, 0.0
1376, 0.0
1378, 0.0
1380, 0.0
1382, 0.0
1384, 0.0
1386, 0.0
1388, 0.0
1390, 0.0
1392, 0.0
1394, 0.0
1396, 0.0
1398, 0.0
1400, 0.0
1402, 0.0
1404, 0.0
1406, 0.0
1408, 0.0
1410, 0.0
1412, 0.0
1414, 0.0
1416, 0.0
1418, 0.0
1420, 0.0
1422, 0.0
1424, 0.0
1426, 0.0
1428, 0.0
1430, 0.0
1432, 0.0
1434, 0.0
1436, 0.0
1438, 0.0
1440, 0.0
1442, 0.0
1444, 0.0
1446, 0.0
1448, 0.0
1450, 0.0
1452, 0.0
1454, 0.0
1456, 0.0
1458, 0.0
1460, 0.0
1462, 0.0
1464, 0.0
1466, 0.0
1468, 0.0
1470, 0.0
1472, 0.0
1474, 0.0
1476, 0.0
1478, 0.0
1480, 0.0
1482, 0.0
1484, 0.0
1486, 0.0
1488, 0.0
1490, 0.0
1492, 0.0
1494, 0.0
1496, 0.0
1498, 0.0
1500, 0.0
1502, 0.0
1504, 0.0
1506, 0.0
1508, 0.0
1510, 0.0
1512, 0.0
1514, 0.0
1516, 0.0
1518, 0.0
1520, 0.0
1522, 0.0
1524, 0.0
1526, 0.0
1528, 0.0
1530, 0.0
1532, 0.0
1534, 0.0
1536, 0.0
1538, 0.0
1540, 0.0
1542, 0.0
1544, 0.0
1546, 0.0
1548, 0.0
1550, 0.0
1552, 0.0
1554, 0.0
1556, 0.0
1558, 0.0
1560, 0.0
1562, 0.0
1564, 0.0
1566, 0.0
1568, 0.0
1570, 0.0
1572, 0.0
1574, 0.0
1576, 0.0
1578, 0.0
1580, 0.0
1582, 0.0
1584, 0.0
1586, 0.0
1588, 0.0
1590, 0.0
1592, 0.0
1594, 0.0
1596, 0.0
1598, 0.0
1599, 0.0