File: raw data/Dataset_2/Yttriumaluminumgarnet/Yttriumaluminumgarnet__X090003__Raman__532__0__unoriented__Raman_Data_Processed__31994.txt
30, 0.0
32, 0.0
34, 0.0
36, 0.0
38, 0.0
40, 0.0
42, 0.0
44, 0.0
46, 0.0
48, 0.0
50, 0.0
52, 0.0
54, 0.0
56, 0.0
58, 0.0
60, 0.0
62, 0.0
64, 0.0
66, 0.0
68, 0.0
70, 0.0
72, 0.0
74, 0.0
76, 0.0
78, 0.0
80, 0.0
82, 0.0
84, 0.0
86, 0.0
88, 0.0
90, 0.0
92, 0.0
94, 0.0
96, 0.0
98.0, 0.000449763
100.0, 0.00167139
102.0, 0.00314154
104.0, 0.00412361
106.0, 0.00346463
108.0, 0.0010596
110.0, 2.80029e-05
112.0, 0.00125373
114.0, 0.000928205
116.0, 0.00499448
118.0, 0.00849439
120.0, 0.0114751
122.0, 0.0123176
124.0, 0.0198297
126.0, 0.0288924
128.0, 0.038818
130.0, 0.0465095
132.0, 0.0496863
134.0, 0.0506021
136.0, 0.0543214
138.0, 0.062571
140.0, 0.0761485
142.0, 0.116903
144.0, 0.16976
146.0, 0.155242
148.0, 0.131621
150.0, 0.131599
152.0, 0.144932
154.0, 0.157036
156.0, 0.180004
158.0, 0.23614
160.0, 0.402042
162.0, 0.880541
164.0, 0.522957
166.0, 0.102169
168.0, 0.0527924
170.0, 0.0417742
172.0, 0.0354579
174.0, 0.0306397
176.0, 0.0291817
178.0, 0.0259455
180.0, 0.023616
182.0, 0.0224183
184.0, 0.0226874
186.0, 0.0200143
188.0, 0.0165798
190.0, 0.0161806
192.0, 0.0141042
194.0, 0.014048
196.0, 0.0130048
198.0, 0.0131795
200.0, 0.0183454
202.0, 0.0228966
204.0, 0.023594
206.0, 0.0289349
208.0, 0.0302284
210.0, 0.0377094
212.0, 0.0483543
214.0, 0.069367
216.0, 0.11111
218.0, 0.184836
220.0, 0.13824
222.0, 0.0363623
224.0, 0.0064408
226.0, 0.00151032
228.0, 0.00193204
230.0, 0.00528517
232.0, 0.00322868
234.0, 0.00236195
236.0, 0.00102699
238.0, 0.00872329
240.0, 0.0234552
242.0, 0.0570838
244.0, 0.0911838
246.0, 0.107269
248.0, 0.127866
250.0, 0.161038
252.0, 0.211668
254.0, 0.288504
256.0, 0.441931
258.0, 0.69447
260.0, 0.983752
262.0, 0.761549
264.0, 0.312195
266.0, 0.134446
268.0, 0.0705102
270.0, 0.0401551
272.0, 0.0237314
274.0, 0.0160873
276.0, 0.0110529
278.0, 0.0096165
280.0, 0.00700449
282.0, 0.0110919
284.0, 0.00890944
286.0, 0.01028
288.0, 0.0145915
290.0, 0.0243314
292.0, 0.0404449
294.0, 0.0547317
296.0, 0.0379198
298.0, 0.0148353
300.0, 0.00561892
302.0, 0.00167217
304.0, 0.00404823
306.0, 0.0047513
308.0, 0.00589152
310.0, 0.00486085
312.0, 0.00138373
314.0, 0.00504078
316.0, 0.00585434
318.0, 0.00482746
320.0, 0.000594666
322.0, 0.00885882
324.0, 0.022351
326.0, 0.0322544
328.0, 0.0462308
330.0, 0.0642261
332.0, 0.0923816
334.0, 0.134049
336.0, 0.20091
338.0, 0.28115
340.0, 0.282391
342.0, 0.164825
344.0, 0.0801813
346.0, 0.0497754
348.0, 0.0403129
350.0, 0.0433677
352.0, 0.05708
354.0, 0.0849562
356.0, 0.120374
358.0, 0.15869
360.0, 0.203559
362.0, 0.272749
364.0, 0.372877
366.0, 0.527862
368.0, 0.749514
370.0, 0.906782
372.0, 0.789451
374.0, 0.491391
376.0, 0.272127
378.0, 0.158315
380.0, 0.103982
382.0, 0.080078
384.0, 0.0857963
386.0, 0.108169
388.0, 0.126101
390.0, 0.160542
392.0, 0.204091
394.0, 0.271003
396.0, 0.389716
398.0, 0.577165
400.0, 0.820739
402.0, 0.829702
404.0, 0.575915
406.0, 0.427974
408.0, 0.244774
410.0, 0.115651
412.0, 0.0630038
414.0, 0.0369727
416.0, 0.0251924
418.0, 0.0158321
420.0, 0.0103188
422.0, 0.00753436
424.0, 0.00537863
426.0, 0.00222078
428.0, 0.000959836
430.0, 0.00272286
432.0, 0.00173914
434.0, 0.00361905
436.0, 0.00672926
438.0, 0.0077989
440.0, 0.00420988
442.0, 0.000588701
444.0, 0.00100827
446.0, 0.000539617
448.0, 0.000899588
450.0, 0.00103143
452.0, 0.000916738
454.0, 0.000425917
456.0, 0.00194293
458.0, 0.00182318
460.0, 0.000685527
462.0, 0.000666874
464.0, 0.000758585
466.0, 0.00100241
468.0, 0.000990653
470.0, 0.00103737
472.0, 0.000776859
474.0, 0.00190907
476.0, 0.00218565
478.0, 0.0041984
480.0, 0.00464227
482.0, 0.00619142
484.0, 0.0042377
486.0, 0.00319221
488.0, 0.00141484
490.0, 0.00152652
492.0, 0.000608478
494.0, 0.000988415
496.0, 0.0031268
498.0, 0.00345654
500.0, 0.00356505
502.0, 0.00277574
504.0, 0.00398914
506.0, 0.00424876
508.0, 0.00345963
510.0, 0.00344451
512.0, 0.00424253
514.0, 0.00456615
516.0, 0.00508637
518.0, 0.00341767
520.0, 0.0046856
522.0, 0.00712242
524.0, 0.00760397
526.0, 0.0106091
528.0, 0.0157402
530.0, 0.020917
532.0, 0.0274554
534.0, 0.0381136
536.0, 0.0473961
538.0, 0.0537847
540.0, 0.0651679
542.0, 0.0816393
544.0, 0.0908312
546.0, 0.0748859
548.0, 0.054787
550.0, 0.0415082
552.0, 0.0414939
554.0, 0.045944
556.0, 0.0509765
558.0, 0.0521975
560.0, 0.0467826
562.0, 0.0342064
564.0, 0.0252826
566.0, 0.0189566
568.0, 0.0159066
570.0, 0.0132848
572.0, 0.0165135
574.0, 0.00853884
576.0, 0.0097148
578.0, 0.0070025
580.0, 0.00957236
582.0, 0.0074753
584.0, 0.00528285
586.0, 0.00543397
588.0, 0.00545674
590.0, 0.00599134
592.0, 0.00543917
594.0, 0.00352419
596.0, 0.00300429
598.0, 0.00374378
600.0, 0.00175305
602.0, 0.00387695
604.0, 0.00260657
606.0, 0.00226071
608.0, 0.00347378
610.0, 0.0034254
612.0, 0.00238845
614.0, 0.00220605
616.0, 0.00197039
618.0, 0.00324127
620.0, 0.00125866
622.0, 0.000947928
624.0, 0.00206815
626.0, 0.00181253
628.0, 0.00105549
630.0, 0.000230305
632.0, 0.000602502
634.0, 0.000425056
636.0, 0.00111338
638.0, 0.0007486
640.0, 2.96824e-05
642.0, 0.000721224
644.0, 0.00256033
646.0, 0.000304084
648.0, 0.000636838
650.0, 0.000297774
652.0, 0.000870639
654.0, 0.00137085
656.0, 0.000216749
658.0, 0.000635108
660.0, 0.000234449
662.0, 0.00157506
664.0, 0.000934547
666.0, 0.000223244
668.0, 0.000836201
670.0, 0.00262294
672.0, 0.00298564
674.0, 0.0061451
676.0, 0.0106092
678.0, 0.0162142
680.0, 0.0226304
682.0, 0.0336409
684.0, 0.0465397
686.0, 0.0632764
688.0, 0.0765245
690.0, 0.0847653
692.0, 0.0764027
694.0, 0.0572081
696.0, 0.0408083
698.0, 0.0349085
700.0, 0.0352384
702.0, 0.0410317
704.0, 0.0524567
706.0, 0.0681799
708.0, 0.0872716
710.0, 0.111414
712.0, 0.142346
714.0, 0.17144
716.0, 0.191637
718.0, 0.17771
720.0, 0.134757
722.0, 0.0855472
724.0, 0.0525006
726.0, 0.0319195
728.0, 0.019721
730.0, 0.0105269
732.0, 0.00452294
734.0, 0.000400262
736.0, 0.000564659
738.0, 0.00207339
740.0, 0.00044879
742.0, 0.000973094
744.0, 0.0043655
746.0, 0.00930424
748.0, 0.0141092
750.0, 0.0209642
752.0, 0.0305822
754.0, 0.0335355
756.0, 0.0352999
758.0, 0.0366467
760.0, 0.038384
762.0, 0.0509282
764.0, 0.0676801
766.0, 0.0942254
768.0, 0.130676
770.0, 0.17822
772.0, 0.239721
774.0, 0.318684
776.0, 0.417371
778.0, 0.537275
780.0, 0.642127
782.0, 0.659419
784.0, 0.555956
786.0, 0.401392
788.0, 0.272756
790.0, 0.184659
792.0, 0.132838
794.0, 0.0969957
796.0, 0.0752492
798.0, 0.056868
800.0, 0.0436439
802.0, 0.0340057
804.0, 0.0236962
806.0, 0.0173084
808.0, 0.0131939
810.0, 0.0092614
812.0, 0.0065355
814.0, 0.00356176
816.0, 0.00348537
818.0, 0.00178483
820.0, 0.00122057
822.0, 0.00087717
824.0, 0.000301998
826.0, 0.000953205
828.0, 0.00185123
830.0, 0.0041237
832.0, 0.00337683
834.0, 0.00199112
836.0, 0.000887786
838.0, 0.00389518
840.0, 0.00687155
842.0, 0.0116112
844.0, 0.0155368
846.0, 0.0251712
848.0, 0.0350015
850.0, 0.0445292
852.0, 0.0559168
854.0, 0.0697971
856.0, 0.0722755
858.0, 0.0637979
860.0, 0.0518256
862.0, 0.0363695
864.0, 0.0245209
866.0, 0.0171587
868.0, 0.0121405
870.0, 0.00688568
872.0, 0.00535377
874.0, 0.0032689
876.0, 0.00203746
878.0, 0.00153445
880.0, 0.000343053
882.0, 0.000107552
884.0, 0.000507784
886.0, 0.000167017
888.0, 0.00126824
890.0, 0.000984619
892.0, 0.000591864
894.0, 0.000765946
896.0, 0.000466358
898.0, 0.000665903
900.0, 0.00143604
902.0, 0.00366496
904.0, 0.00493714
906.0, 0.00662058
908.0, 0.00722536
910.0, 0.00805773
912.0, 0.00825992
914.0, 0.0110879
916.0, 0.0109037
918.0, 0.0122057
920.0, 0.0132223
922.0, 0.0124913
924.0, 0.0135272
926.0, 0.0135291
928.0, 0.0130974
930.0, 0.0118236
932.0, 0.0106845
934.0, 0.0117936
936.0, 0.0087824
938.0, 0.0100073
940.0, 0.00786202
942.0, 0.00758722
944.0, 0.00722708
946.0, 0.00606246
948.0, 0.00332014
950.0, 0.00244366
952.0, 0.00141333
954.0, 0.00252916
956.0, 0.00342949
958.0, 0.0045485
960.0, 0.00486764
962.0, 0.00568742
964.0, 0.00731094
966.0, 0.0104173
968.0, 0.0103571
970.0, 0.0162137
972.0, 0.0170859
974.0, 0.0159621
976.0, 0.0123316
978.0, 0.00680216
980.0, 0.00471889
982.0, 0.00387664
984.0, 0.0027374
986.0, 0.000608554
988.0, 0.000986843
990.0, 0.000557486
992.0, 0.00133197
994.0, 0.000928547
996.0, 0.000276668
998.0, 0.000563516
1000.0, 0.00097574
1002.0, 0.000472201
1004.0, 0.000104318
1006.0, 0.000339122
1008.0, 0.000291059
1010.0, 0.000209861
1012.0, 0.000261149
1014.0, 0.00050413
1016.0, 0.000403864
1018.0, 0.000511882
1020.0, 0.000561545
1022.0, 0.000702047
1024.0, 0.000557301
1026.0, 0.000885016
1028.0, 0.00102332
1030.0, 0.00278785
1032.0, 0.00194041
1034.0, 0.00338417
1036.0, 0.00331294
1038.0, 0.00258027
1040.0, 0.00404036
1042.0, 0.00303754
1044.0, 0.0013428
1046.0, 0.00323601
1048.0, 0.00562415
1050.0, 0.0035181
1052.0, 0.00475031
1054.0, 0.00484448
1056.0, 0.00509719
1058.0, 0.00562132
1060.0, 0.00719519
1062.0, 0.00810299
1064.0, 0.00915165
1066.0, 0.0067337
1068.0, 0.00888808
1070.0, 0.00768754
1072.0, 0.00656124
1074.0, 0.00716811
1076.0, 0.00598108
1078.0, 0.0054312
1080.0, 0.00418772
1082.0, 0.00511063
1084.0, 0.00589485
1086.0, 0.00490967
1088.0, 0.00281835
1090.0, 0.00379167
1092.0, 0.00446273
1094.0, 0.00460218
1096.0, 0.00455262
1098.0, 0.0036449
1100.0, 0.00156264
1102.0, 0.00310561
1104.0, 0.00339022
1106.0, 0.00427217
1108.0, 0.00260584
1110.0, 0.00260988
1112.0, 0.00193591
1114.0, 0.0026337
1116.0, 0.00213265
1118.0, 0.000448437
1120.0, 0.000655823
1122.0, 0.00014486
1124.0, 0.000488956
1126.0, 0.000819392
1128.0, 0.000506042
1130.0, 0.000307014
1132.0, 4.49897e-05
1134.0, 0.0006885
1136.0, 0.00159744
1138.0, 0.0020063
1140.0, 0.00443131
1142.0, 0.00433433
1144.0, 0.0067706
1146.0, 0.00664491
1148.0, 0.00890504
1150.0, 0.0112998
1152.0, 0.0139364
1154.0, 0.0157577
1156.0, 0.0179389
1158.0, 0.0192452
1160.0, 0.0219661
1162.0, 0.0263483
1164.0, 0.0282131
1166.0, 0.0353566
1168.0, 0.0372651
1170.0, 0.0415794
1172.0, 0.0476874
1174.0, 0.0508763
1176.0, 0.0579432
1178.0, 0.0639671
1180.0, 0.0711588
1182.0, 0.0771135
1184.0, 0.085962
1186.0, 0.0949029
1188.0, 0.104385
1190.0, 0.113649
1192.0, 0.118343
1194.0, 0.121123
1196.0, 0.119
1198.0, 0.115229
1200.0, 0.104221
1202.0, 0.0918596
1204.0, 0.0778852
1206.0, 0.0677596
1208.0, 0.0570106
1210.0, 0.0489984
1212.0, 0.0396506
1214.0, 0.0362847
1216.0, 0.0279071
1218.0, 0.0254672
1220.0, 0.020211
1222.0, 0.0182286
1224.0, 0.0140136
1226.0, 0.0118862
1228.0, 0.00967015
1230.0, 0.00736978
1232.0, 0.00558489
1234.0, 0.00566537
1236.0, 0.00417955
1238.0, 0.00420328
1240.0, 0.00280691
1242.0, 0.002353
1244.0, 0.00318311
1246.0, 0.000950698
1248.0, 0.0023746
1250.0, 0.000294933
1252.0, 0.00137253
1254.0, 0.000408589
1256.0, 0.000310047
1258.0, 0.000161682
1260.0, 0.000423105
1262.0, 0.000588587
1264.0, 0.000275571
1266.0, 0.000652923
1268.0, 3.55935e-05
1270.0, 0.000309402
1272.0, 0.000357549
1274.0, 9.8189e-05
1276.0, 0.000322135
1278.0, 0.00172328
1280.0, 0.00153535
1282.0, 0.00263763
1284.0, 0.00286918
1286.0, 0.00401024
1288.0, 0.00176446
1290.0, 0.00168252
1292.0, 0.00147235
1294.0, 0.00149548
1296.0, 0.000771735
1298.0, 0.00136321
1300.0, 0.00250039
1302.0, 0.000153353
1304, 0.0
1306, 0.0
1308, 0.0
1310, 0.0
1312, 0.0
1314, 0.0
1316, 0.0
1318, 0.0
1320, 0.0
1322, 0.0
1324, 0.0
1326, 0.0
1328, 0.0
1330, 0.0
1332, 0.0
1334, 0.0
1336, 0.0
1338, 0.0
1340, 0.0
1342, 0.0
1344, 0.0
1346, 0.0
1348, 0.0
1350, 0.0
1352, 0.0
1354, 0.0
1356, 0.0
1358, 0.0
1360, 0.0
1362, 0.0
1364, 0.0
1366, 0.0
1368, 0.0
1370, 0.0
1372, 0.0
1374, 0.0
1376, 0.0
1378, 0.0
1380, 0.0
1382, 0.0
1384, 0.0
1386, 0.0
1388, 0.0
1390, 0.0
1392, 0.0
1394, 0.0
1396, 0.0
1398, 0.0
1400, 0.0
1402, 0.0
1404, 0.0
1406, 0.0
1408, 0.0
1410, 0.0
1412, 0.0
1414, 0.0
1416, 0.0
1418, 0.0
1420, 0.0
1422, 0.0
1424, 0.0
1426, 0.0
1428, 0.0
1430, 0.0
1432, 0.0
1434, 0.0
1436, 0.0
1438, 0.0
1440, 0.0
1442, 0.0
1444, 0.0
1446, 0.0
1448, 0.0
1450, 0.0
1452, 0.0
1454, 0.0
1456, 0.0
1458, 0.0
1460, 0.0
1462, 0.0
1464, 0.0
1466, 0.0
1468, 0.0
1470, 0.0
1472, 0.0
1474, 0.0
1476, 0.0
1478, 0.0
1480, 0.0
1482, 0.0
1484, 0.0
1486, 0.0
1488, 0.0
1490, 0.0
1492, 0.0
1494, 0.0
1496, 0.0
1498, 0.0
1500, 0.0
1502, 0.0
1504, 0.0
1506, 0.0
1508, 0.0
1510, 0.0
1512, 0.0
1514, 0.0
1516, 0.0
1518, 0.0
1520, 0.0
1522, 0.0
1524, 0.0
1526, 0.0
1528, 0.0
1530, 0.0
1532, 0.0
1534, 0.0
1536, 0.0
1538, 0.0
1540, 0.0
1542, 0.0
1544, 0.0
1546, 0.0
1548, 0.0
1550, 0.0
1552, 0.0
1554, 0.0
1556, 0.0
1558, 0.0
1560, 0.0
1562, 0.0
1564, 0.0
1566, 0.0
1568, 0.0
1570, 0.0
1572, 0.0
1574, 0.0
1576, 0.0
1578, 0.0
1580, 0.0
1582, 0.0
1584, 0.0
1586, 0.0
1588, 0.0
1590, 0.0
1592, 0.0
1594, 0.0
1596, 0.0
1598, 0.0
1599, 0.0