File: raw data/Dataset_2/Yttriumaluminumgarnet/Yttriumaluminumgarnet__R110105__Raman__532__0__unoriented__Raman_Data_Processed__35690.txt
30, 0.0
32, 0.0
34, 0.0
36, 0.0
38, 0.0
40, 0.0
42, 0.0
44, 0.0
46, 0.0
48, 0.0
50, 0.0
52, 0.0
54, 0.0
56, 0.0
58, 0.0
60, 0.0
62, 0.0
64, 0.0
66, 0.0
68, 0.0
70, 0.0
72, 0.0
74, 0.0
76, 0.0
78, 0.0
80, 0.0
82, 0.0
84, 0.0
86, 0.0
88, 0.0
90, 0.0
92, 0.0
94, 0.0
96, 0.0
98, 0.0
100, 0.0
102, 0.0
104, 0.0
106, 0.0
108, 0.0
110, 0.0
112, 0.0
114, 0.0
116, 0.0
118, 0.0
120, 0.0
122, 0.0
124.0, 0.000186375
126.0, 0.0017562
128.0, 0.00165725
130.0, 0.00396063
132.0, 0.0160663
134.0, 0.0221254
136.0, 0.0259661
138.0, 0.0400843
140.0, 0.0492078
142.0, 0.0629168
144.0, 0.0818298
146.0, 0.0930101
148.0, 0.110076
150.0, 0.117806
152.0, 0.144443
154.0, 0.165328
156.0, 0.195088
158.0, 0.235988
160.0, 0.269244
162.0, 0.305676
164.0, 0.281277
166.0, 0.244518
168.0, 0.244202
170.0, 0.262626
172.0, 0.264361
174.0, 0.288122
176.0, 0.313237
178.0, 0.313467
180.0, 0.253728
182.0, 0.206145
184.0, 0.156121
186.0, 0.129697
188.0, 0.0989537
190.0, 0.0808762
192.0, 0.0534914
194.0, 0.0457101
196.0, 0.0267869
198.0, 0.0218936
200.0, 0.0216339
202.0, 0.0212523
204.0, 0.0272251
206.0, 0.0312643
208.0, 0.0315692
210.0, 0.0392339
212.0, 0.0516852
214.0, 0.0717333
216.0, 0.109021
218.0, 0.156638
220.0, 0.103724
222.0, 0.0208696
224.0, 0.0047704
226.0, 0.00944743
228.0, 0.0098584
230.0, 0.00666689
232.0, 0.0008506
234.0, 8.6453e-05
236.0, 0.011854
238.0, 0.0226628
240.0, 0.044907
242.0, 0.0894588
244.0, 0.145593
246.0, 0.1803
248.0, 0.2246
250.0, 0.270534
252.0, 0.345985
254.0, 0.445314
256.0, 0.606511
258.0, 0.82815
260.0, 0.999767
262.0, 0.720289
264.0, 0.315998
266.0, 0.160603
268.0, 0.0892734
270.0, 0.069816
272.0, 0.0513677
274.0, 0.0472123
276.0, 0.045034
278.0, 0.0446581
280.0, 0.0459332
282.0, 0.0366817
284.0, 0.0340878
286.0, 0.0289613
288.0, 0.0242408
290.0, 0.0336885
292.0, 0.0498223
294.0, 0.058955
296.0, 0.0363531
298.0, 0.0207264
300.0, 0.012224
302.0, 0.00308107
304.0, 0.00536119
306.0, 0.00485922
308.0, 0.00588811
310.0, 0.0029384
312.0, 0.00212955
314.0, 0.00391162
316.0, 0.00426505
318.0, 0.0029106
320.0, 0.00314419
322.0, 0.0118249
324.0, 0.0210757
326.0, 0.0314526
328.0, 0.0429319
330.0, 0.064641
332.0, 0.0833125
334.0, 0.111978
336.0, 0.158962
338.0, 0.2003
340.0, 0.194314
342.0, 0.117234
344.0, 0.0620284
346.0, 0.0350614
348.0, 0.0332564
350.0, 0.0431935
352.0, 0.067208
354.0, 0.110846
356.0, 0.15985
358.0, 0.212531
360.0, 0.273261
362.0, 0.335877
364.0, 0.432015
366.0, 0.562805
368.0, 0.723016
370.0, 0.797962
372.0, 0.675302
374.0, 0.433378
376.0, 0.243697
378.0, 0.139595
380.0, 0.0892047
382.0, 0.0732377
384.0, 0.0848856
386.0, 0.101347
388.0, 0.124577
390.0, 0.162528
392.0, 0.209021
394.0, 0.261374
396.0, 0.350945
398.0, 0.474324
400.0, 0.598127
402.0, 0.573387
404.0, 0.451471
406.0, 0.361967
408.0, 0.227478
410.0, 0.111753
412.0, 0.0602826
414.0, 0.0368887
416.0, 0.0235202
418.0, 0.0135667
420.0, 0.0101531
422.0, 0.00350367
424.0, 0.00190758
426.0, 0.00218034
428.0, 0.000455516
430.0, 0.00104495
432.0, 0.0016037
434.0, 0.00472051
436.0, 0.00191007
438.0, 0.00322855
440.0, 0.000156489
442.0, 0.00138543
444.0, 0.00358646
446.0, 0.00416393
448.0, 0.00486729
450.0, 0.00340015
452.0, 0.00150301
454.0, 0.00017845
456.0, 0.00340191
458.0, 0.0010592
460.0, 0.00755287
462.0, 0.00188352
464.0, 0.000383565
466.0, 0.00114102
468.0, 0.000698158
470.0, 0.00332564
472.0, 0.0018533
474.0, 0.00490964
476.0, 0.0084455
478.0, 0.00748784
480.0, 0.0079972
482.0, 0.00988668
484.0, 0.00434295
486.0, 0.00465479
488.0, 0.00336418
490.0, 0.0038892
492.0, 0.00843884
494.0, 0.00788987
496.0, 0.00920079
498.0, 0.010738
500.0, 0.0116895
502.0, 0.00666434
504.0, 0.00841603
506.0, 0.00562933
508.0, 0.00681488
510.0, 0.00379626
512.0, 0.00697137
514.0, 0.00788852
516.0, 0.00390757
518.0, 0.00161078
520.0, 0.00749775
522.0, 0.00911193
524.0, 0.0113686
526.0, 0.0142229
528.0, 0.0213845
530.0, 0.0283064
532.0, 0.0363356
534.0, 0.0432802
536.0, 0.0492335
538.0, 0.0623581
540.0, 0.077529
542.0, 0.0915571
544.0, 0.0994858
546.0, 0.08287
548.0, 0.0606323
550.0, 0.0510919
552.0, 0.045548
554.0, 0.0440308
556.0, 0.0453452
558.0, 0.0474478
560.0, 0.038189
562.0, 0.0299382
564.0, 0.0217715
566.0, 0.0181582
568.0, 0.0144479
570.0, 0.0115735
572.0, 0.0122481
574.0, 0.0126634
576.0, 0.0116688
578.0, 0.0134542
580.0, 0.0168048
582.0, 0.0153876
584.0, 0.0153984
586.0, 0.0151252
588.0, 0.0189676
590.0, 0.0128523
592.0, 0.0144196
594.0, 0.0135692
596.0, 0.0161353
598.0, 0.0124728
600.0, 0.0141896
602.0, 0.0103139
604.0, 0.00695487
606.0, 0.00878881
608.0, 0.00881309
610.0, 0.00741861
612.0, 0.00585544
614.0, 0.00615837
616.0, 0.00452561
618.0, 0.00708101
620.0, 0.00453448
622.0, 0.00385363
624.0, 0.00448631
626.0, 0.00103077
628.0, 0.00243471
630.0, 0.00344923
632.0, 0.000145755
634.0, 0.00106446
636.0, 0.00490174
638.0, 0.00609649
640.0, 0.00167158
642.0, 0.000224027
644.0, 0.000394351
646.0, 0.000763327
648.0, 0.00313134
650.0, 0.000466605
652.0, 0.000511953
654.0, 0.000804045
656.0, 0.000146668
658.0, 0.00170484
660.0, 0.00146685
662.0, 0.00082855
664.0, 0.000279419
666.0, 0.000535258
668.0, 0.00162737
670.0, 0.00504905
672.0, 0.00897508
674.0, 0.00809416
676.0, 0.0150302
678.0, 0.0227529
680.0, 0.035943
682.0, 0.0505259
684.0, 0.0651185
686.0, 0.0779003
688.0, 0.0955297
690.0, 0.101085
692.0, 0.0916914
694.0, 0.071111
696.0, 0.0554788
698.0, 0.0447027
700.0, 0.0419747
702.0, 0.0528883
704.0, 0.0643499
706.0, 0.079233
708.0, 0.103744
710.0, 0.131212
712.0, 0.156798
714.0, 0.185186
716.0, 0.197919
718.0, 0.179857
720.0, 0.134784
722.0, 0.0872632
724.0, 0.0576056
726.0, 0.036099
728.0, 0.0274823
730.0, 0.0175165
732.0, 0.00836324
734.0, 0.00524045
736.0, 0.00192362
738.0, 0.00134851
740.0, 0.005935
742.0, 0.00210201
744.0, 0.00907293
746.0, 0.0145395
748.0, 0.0232835
750.0, 0.0292334
752.0, 0.0394868
754.0, 0.040446
756.0, 0.0445099
758.0, 0.045637
760.0, 0.0493336
762.0, 0.0577751
764.0, 0.0700431
766.0, 0.099
768.0, 0.132313
770.0, 0.180044
772.0, 0.231934
774.0, 0.292113
776.0, 0.363454
778.0, 0.436371
780.0, 0.497157
782.0, 0.486418
784.0, 0.402448
786.0, 0.289368
788.0, 0.196084
790.0, 0.134964
792.0, 0.10004
794.0, 0.0739199
796.0, 0.0530452
798.0, 0.038053
800.0, 0.0286444
802.0, 0.0189316
804.0, 0.012409
806.0, 0.00867881
808.0, 0.0128389
810.0, 0.00454215
812.0, 0.000524169
814.0, 0.00302296
816.0, 0.00513291
818.0, 0.00266798
820.0, 0.00406023
822.0, 0.00398547
824.0, 0.00254968
826.0, 0.00146648
828.0, 0.00588559
830.0, 0.00117004
832.0, 0.000625243
834.0, 0.00670009
836.0, 0.00166988
838.0, 0.000900099
840.0, 0.00308402
842.0, 0.0106313
844.0, 0.01493
846.0, 0.0276381
848.0, 0.0412742
850.0, 0.0521711
852.0, 0.0619903
854.0, 0.075243
856.0, 0.0774606
858.0, 0.0726251
860.0, 0.0583987
862.0, 0.041278
864.0, 0.0323582
866.0, 0.0206842
868.0, 0.0116614
870.0, 0.012187
872.0, 0.0125773
874.0, 0.0123
876.0, 0.011589
878.0, 0.00751525
880.0, 0.00472427
882.0, 0.00354394
884.0, 0.00436645
886.0, 0.0087206
888.0, 0.00719009
890.0, 0.00689258
892.0, 0.0046158
894.0, 0.00276434
896.0, 0.00353477
898.0, 0.000813033
900.0, 0.00570329
902.0, 0.00397604
904.0, 0.00635805
906.0, 0.0106364
908.0, 0.0107961
910.0, 0.0124047
912.0, 0.0120683
914.0, 0.0155775
916.0, 0.0173678
918.0, 0.0153826
920.0, 0.016679
922.0, 0.0161568
924.0, 0.0231753
926.0, 0.0205012
928.0, 0.00682202
930.0, 0.00683502
932.0, 0.00243373
934.0, 0.0104463
936.0, 0.0145562
938.0, 0.00834254
940.0, 0.00454148
942.0, 0.00542636
944.0, 0.00376041
946.0, 0.00488193
948.0, 0.00596649
950.0, 0.00300858
952.0, 0.00822825
954.0, 0.00722868
956.0, 0.00921382
958.0, 0.00754009
960.0, 0.0114785
962.0, 0.0165298
964.0, 0.0177886
966.0, 0.0262312
968.0, 0.0286244
970.0, 0.0301738
972.0, 0.0314912
974.0, 0.0275036
976.0, 0.0206746
978.0, 0.0135864
980.0, 0.0120452
982.0, 0.00919985
984.0, 0.0076112
986.0, 0.00541711
988.0, 0.00280816
990.0, 0.00179663
992.0, 0.00278249
994.0, 0.00333696
996.0, 0.00948455
998.0, 0.00203341
1000.0, 0.00229423
1002.0, 0.00052959
1004.0, 0.00204217
1006.0, 0.00261554
1008.0, 0.00515932
1010.0, 0.00707366
1012.0, 0.00489215
1014.0, 0.00218554
1016.0, 0.00283474
1018.0, 0.00222922
1020.0, 0.00828082
1022.0, 0.00976553
1024.0, 0.00647897
1026.0, 0.00820552
1028.0, 0.00652809
1030.0, 0.00464708
1032.0, 0.00703718
1034.0, 0.00787354
1036.0, 0.00881306
1038.0, 0.0103378
1040.0, 0.00544829
1042.0, 0.00627691
1044.0, 0.00505349
1046.0, 0.00610477
1048.0, 0.00769083
1050.0, 0.00818241
1052.0, 0.00293462
1054.0, 0.000698406
1056.0, 0.00430025
1058.0, 0.0112296
1060.0, 0.011758
1062.0, 0.00973965
1064.0, 0.0129036
1066.0, 0.0100674
1068.0, 0.0107483
1070.0, 0.00905998
1072.0, 0.00804104
1074.0, 0.00570003
1076.0, 0.00494487
1078.0, 0.0107685
1080.0, 0.00480213
1082.0, 0.0072652
1084.0, 0.00782278
1086.0, 0.0091799
1088.0, 0.0079947
1090.0, 0.00912913
1092.0, 0.0138739
1094.0, 0.0130781
1096.0, 0.0146676
1098.0, 0.0126068
1100.0, 0.0164208
1102.0, 0.0158625
1104.0, 0.0097318
1106.0, 0.0113924
1108.0, 0.0105856
1110.0, 0.0128791
1112.0, 0.0124896
1114.0, 0.0122021
1116.0, 0.0113225
1118.0, 0.00640153
1120.0, 0.010432
1122.0, 0.00863003
1124.0, 0.00648691
1126.0, 0.00497789
1128.0, 0.00647389
1130.0, 0.000219223
1132.0, 0.00449581
1134.0, 0.00095203
1136.0, 0.00434374
1138.0, 0.00269804
1140.0, 0.00684069
1142.0, 0.00368889
1144.0, 0.00351803
1146.0, 0.00151098
1148.0, 0.00550322
1150.0, 0.00177979
1152.0, 0.00194261
1154.0, 0.0019464
1156.0, 0.00588891
1158.0, 0.0025361
1160.0, 0.000943927
1162.0, 0.0023935
1164.0, 0.00118766
1166.0, 0.00371619
1168.0, 0.00343742
1170.0, 0.000187599
1172.0, 0.00380612
1174.0, 0.0050043
1176.0, 0.00751463
1178.0, 0.0077893
1180.0, 0.00882324
1182.0, 0.0119881
1184.0, 0.0149648
1186.0, 0.0203055
1188.0, 0.0211263
1190.0, 0.0223443
1192.0, 0.0215225
1194.0, 0.0204626
1196.0, 0.0206094
1198.0, 0.0234136
1200.0, 0.0188131
1202.0, 0.0134686
1204.0, 0.0161837
1206.0, 0.0177532
1208.0, 0.019606
1210.0, 0.0217695
1212.0, 0.0157507
1214.0, 0.0166165
1216.0, 0.0142908
1218.0, 0.00787154
1220.0, 0.00856492
1222.0, 0.00624866
1224.0, 0.00927948
1226.0, 0.0106712
1228.0, 0.00989197
1230.0, 0.00969232
1232.0, 0.00383113
1234.0, 0.00227882
1236.0, 0.00217007
1238.0, 0.000460386
1240.0, 0.000368028
1242.0, 0.00189872
1244.0, 0.00826648
1246.0, 0.00664816
1248.0, 0.009735
1250.0, 0.00499525
1252.0, 0.00734233
1254.0, 0.0106986
1256.0, 0.0104316
1258.0, 0.0118084
1260.0, 0.0158373
1262.0, 0.019814
1264.0, 0.0181524
1266.0, 0.0167028
1268.0, 0.0174594
1270.0, 0.0154066
1272.0, 0.0108169
1274.0, 0.0149203
1276.0, 0.0145344
1278.0, 0.0182858
1280.0, 0.0100094
1282.0, 0.00866834
1284.0, 0.00828578
1286.0, 0.00971125
1288.0, 0.00517359
1290.0, 0.00385057
1292.0, 0.00355366
1294.0, 0.00025728
1296.0, 0.00352967
1298.0, 0.000328316
1300.0, 0.000176262
1302.0, 0.00058957
1304, 0.0
1306, 0.0
1308, 0.0
1310, 0.0
1312, 0.0
1314, 0.0
1316, 0.0
1318, 0.0
1320, 0.0
1322, 0.0
1324, 0.0
1326, 0.0
1328, 0.0
1330, 0.0
1332, 0.0
1334, 0.0
1336, 0.0
1338, 0.0
1340, 0.0
1342, 0.0
1344, 0.0
1346, 0.0
1348, 0.0
1350, 0.0
1352, 0.0
1354, 0.0
1356, 0.0
1358, 0.0
1360, 0.0
1362, 0.0
1364, 0.0
1366, 0.0
1368, 0.0
1370, 0.0
1372, 0.0
1374, 0.0
1376, 0.0
1378, 0.0
1380, 0.0
1382, 0.0
1384, 0.0
1386, 0.0
1388, 0.0
1390, 0.0
1392, 0.0
1394, 0.0
1396, 0.0
1398, 0.0
1400, 0.0
1402, 0.0
1404, 0.0
1406, 0.0
1408, 0.0
1410, 0.0
1412, 0.0
1414, 0.0
1416, 0.0
1418, 0.0
1420, 0.0
1422, 0.0
1424, 0.0
1426, 0.0
1428, 0.0
1430, 0.0
1432, 0.0
1434, 0.0
1436, 0.0
1438, 0.0
1440, 0.0
1442, 0.0
1444, 0.0
1446, 0.0
1448, 0.0
1450, 0.0
1452, 0.0
1454, 0.0
1456, 0.0
1458, 0.0
1460, 0.0
1462, 0.0
1464, 0.0
1466, 0.0
1468, 0.0
1470, 0.0
1472, 0.0
1474, 0.0
1476, 0.0
1478, 0.0
1480, 0.0
1482, 0.0
1484, 0.0
1486, 0.0
1488, 0.0
1490, 0.0
1492, 0.0
1494, 0.0
1496, 0.0
1498, 0.0
1500, 0.0
1502, 0.0
1504, 0.0
1506, 0.0
1508, 0.0
1510, 0.0
1512, 0.0
1514, 0.0
1516, 0.0
1518, 0.0
1520, 0.0
1522, 0.0
1524, 0.0
1526, 0.0
1528, 0.0
1530, 0.0
1532, 0.0
1534, 0.0
1536, 0.0
1538, 0.0
1540, 0.0
1542, 0.0
1544, 0.0
1546, 0.0
1548, 0.0
1550, 0.0
1552, 0.0
1554, 0.0
1556, 0.0
1558, 0.0
1560, 0.0
1562, 0.0
1564, 0.0
1566, 0.0
1568, 0.0
1570, 0.0
1572, 0.0
1574, 0.0
1576, 0.0
1578, 0.0
1580, 0.0
1582, 0.0
1584, 0.0
1586, 0.0
1588, 0.0
1590, 0.0
1592, 0.0
1594, 0.0
1596, 0.0
1598, 0.0
1599, 0.0