File: raw data/Dataset_2/Yttriumaluminumgarnet/Yttriumaluminumgarnet__R150067__Raman__532__0__unoriented__Raman_Data_Processed__38851.txt
30, 0.0
32, 0.0
34, 0.0
36, 0.0
38, 0.0
40, 0.0
42, 0.0
44, 0.0
46, 0.0
48, 0.0
50, 0.0
52, 0.0
54, 0.0
56, 0.0
58, 0.0
60, 0.0
62, 0.0
64, 0.0
66, 0.0
68, 0.0
70, 0.0
72, 0.0
74, 0.0
76, 0.0
78, 0.0
80, 0.0
82, 0.0
84, 0.0
86, 0.0
88, 0.0
90.0, 5.62314e-06
92.0, 0.00161118
94.0, 0.00196366
96.0, 0.00141738
98.0, 0.000668974
100.0, 0.0016748
102.0, 0.00339929
104.0, 0.00462359
106.0, 0.00634242
108.0, 0.00741131
110.0, 0.00638325
112.0, 0.00379749
114.0, 0.00302134
116.0, 0.00220379
118.0, 0.00127546
120.0, 0.000150833
122.0, 0.000724041
124.0, 0.000139075
126.0, 0.000268747
128.0, 0.000116795
130.0, 0.000847044
132.0, 0.0020338
134.0, 0.00269738
136.0, 0.00323158
138.0, 0.00450254
140.0, 0.00725871
142.0, 0.0104972
144.0, 0.0170887
146.0, 0.017434
148.0, 0.0165969
150.0, 0.0192161
152.0, 0.0225642
154.0, 0.0263344
156.0, 0.0310087
158.0, 0.0370321
160.0, 0.0500866
162.0, 0.0882649
164.0, 0.0818675
166.0, 0.0363759
168.0, 0.0257481
170.0, 0.0252845
172.0, 0.0263984
174.0, 0.0257647
176.0, 0.0223708
178.0, 0.0197212
180.0, 0.0161161
182.0, 0.0119904
184.0, 0.00905201
186.0, 0.00657537
188.0, 0.00547111
190.0, 0.0044328
192.0, 0.00485868
194.0, 0.00564713
196.0, 0.00680661
198.0, 0.00860076
200.0, 0.011016
202.0, 0.0138375
204.0, 0.0163558
206.0, 0.0193161
208.0, 0.022278
210.0, 0.0257632
212.0, 0.027458
214.0, 0.0262085
216.0, 0.0264686
218.0, 0.0334704
220.0, 0.0316423
222.0, 0.017827
224.0, 0.00835376
226.0, 0.00415845
228.0, 0.00177283
230.0, 0.000579242
232.0, 0.000926148
234.0, 0.00132224
236.0, 0.00121314
238.0, 0.000434948
240.0, 0.00165695
242.0, 0.00585674
244.0, 0.011498
246.0, 0.0149985
248.0, 0.0176861
250.0, 0.020167
252.0, 0.0235853
254.0, 0.0307114
256.0, 0.0457402
258.0, 0.072577
260.0, 0.116634
262.0, 0.12746
264.0, 0.0729292
266.0, 0.0394194
268.0, 0.028604
270.0, 0.0242004
272.0, 0.0208341
274.0, 0.0176911
276.0, 0.0151557
278.0, 0.0121835
280.0, 0.00955806
282.0, 0.00685007
284.0, 0.00478594
286.0, 0.00366627
288.0, 0.00347003
290.0, 0.00418118
292.0, 0.00577812
294.0, 0.00721752
296.0, 0.00655454
298.0, 0.00162827
300.0, 0.00106658
302.0, 0.00226818
304.0, 0.00221001
306.0, 0.00138265
308.0, 0.000263576
310.0, 0.00123126
312.0, 0.00241285
314.0, 0.00361446
316.0, 0.00579674
318.0, 0.00745209
320.0, 0.00931072
322.0, 0.0135546
324.0, 0.0192954
326.0, 0.0275919
328.0, 0.0369584
330.0, 0.0488901
332.0, 0.0634669
334.0, 0.0812855
336.0, 0.106201
338.0, 0.149495
340.0, 0.20086
342.0, 0.204482
344.0, 0.141723
346.0, 0.0765068
348.0, 0.042083
350.0, 0.0263043
352.0, 0.020605
354.0, 0.0226586
356.0, 0.030763
358.0, 0.0420273
360.0, 0.0579402
362.0, 0.0556364
364.0, 0.0528388
366.0, 0.0700913
368.0, 0.105902
370.0, 0.154549
372.0, 0.164303
374.0, 0.116163
376.0, 0.0662196
378.0, 0.0392778
380.0, 0.0271355
382.0, 0.02209
384.0, 0.0217913
386.0, 0.0240128
388.0, 0.0277328
390.0, 0.0327773
392.0, 0.0414328
394.0, 0.0540977
396.0, 0.0768056
398.0, 0.111472
400.0, 0.174053
402.0, 0.233739
404.0, 0.19903
406.0, 0.173758
408.0, 0.154348
410.0, 0.103047
412.0, 0.059988
414.0, 0.0388838
416.0, 0.0312825
418.0, 0.0254697
420.0, 0.0159632
422.0, 0.0106683
424.0, 0.00889452
426.0, 0.00996334
428.0, 0.00722837
430.0, 0.00356988
432.0, 0.000586627
434.0, 0.000142998
436.0, 0.00051805
438.0, 2.08791e-05
440.0, 0.000806705
442.0, 0.000927867
444.0, 0.00116086
446.0, 0.0011347
448.0, 0.00122488
450.0, 0.000946026
452.0, 0.000386317
454.0, 6.30118e-05
456.0, 0.000431271
458.0, 0.00101319
460.0, 0.0015073
462.0, 0.00259369
464.0, 0.00408173
466.0, 0.00628167
468.0, 0.00651923
470.0, 0.00483791
472.0, 0.00527329
474.0, 0.00669309
476.0, 0.0102207
478.0, 0.0170743
480.0, 0.0292067
482.0, 0.0502708
484.0, 0.0473573
486.0, 0.0239319
488.0, 0.0126079
490.0, 0.00872281
492.0, 0.00774621
494.0, 0.00758577
496.0, 0.00887602
498.0, 0.00916852
500.0, 0.00910674
502.0, 0.00809158
504.0, 0.0079458
506.0, 0.00854959
508.0, 0.00911689
510.0, 0.00789864
512.0, 0.00549557
514.0, 0.00417771
516.0, 0.00261523
518.0, 0.00171483
520.0, 0.000769891
522.0, 0.000413803
524.0, 0.000238838
526.0, 0.000294862
528.0, 0.000386391
530.0, 0.000379461
532.0, 0.00130282
534.0, 0.00253426
536.0, 0.00437747
538.0, 0.0056446
540.0, 0.00652399
542.0, 0.00922259
544.0, 0.011971
546.0, 0.0107347
548.0, 0.0070061
550.0, 0.00507971
552.0, 0.0049998
554.0, 0.00657748
556.0, 0.00887254
558.0, 0.0116191
560.0, 0.0140129
562.0, 0.0108633
564.0, 0.00750638
566.0, 0.00478064
568.0, 0.00296683
570.0, 0.00219542
572.0, 0.00156237
574.0, 0.00178212
576.0, 0.0026583
578.0, 0.0027155
580.0, 0.00355919
582.0, 0.00400623
584.0, 0.0043834
586.0, 0.00485873
588.0, 0.00536356
590.0, 0.00677558
592.0, 0.00770754
594.0, 0.0073632
596.0, 0.00565756
598.0, 0.00333711
600.0, 0.00143321
602.0, 0.00103391
604.0, 0.000249011
606.0, 0.000464463
608.0, 0.00040864
610.0, 0.00113106
612.0, 0.00145466
614.0, 0.00137369
616.0, 0.000885742
618.0, 0.000552271
620.0, 0.000547139
622.0, 0.000927682
624.0, 0.00124077
626.0, 0.00133638
628.0, 0.0011397
630.0, 0.000269245
632.0, 9.14814e-05
634.0, 0.000271445
636.0, 0.00143869
638.0, 0.00104702
640.0, 0.000664475
642.0, 0.000319888
644.0, 0.00117841
646.0, 0.00188231
648.0, 0.00325449
650.0, 0.00451422
652.0, 0.00664079
654.0, 0.00981259
656.0, 0.0130298
658.0, 0.0170915
660.0, 0.0229054
662.0, 0.0298504
664.0, 0.0379435
666.0, 0.0453468
668.0, 0.0506388
670.0, 0.0520788
672.0, 0.0481434
674.0, 0.0408658
676.0, 0.0323301
678.0, 0.0249842
680.0, 0.0187246
682.0, 0.0146719
684.0, 0.0123534
686.0, 0.0118844
688.0, 0.0127246
690.0, 0.0128891
692.0, 0.0105981
694.0, 0.00606361
696.0, 0.00299199
698.0, 0.00102925
700.0, 0.000895719
702.0, 0.00204704
704.0, 0.00419817
706.0, 0.0069491
708.0, 0.0105603
710.0, 0.0136196
712.0, 0.0175033
714.0, 0.0219307
716.0, 0.0253018
718.0, 0.0229258
720.0, 0.0158982
722.0, 0.00804696
724.0, 0.00279845
726.0, 0.000210029
728.0, 0.00135616
730.0, 0.00224347
732.0, 0.0013451
734.0, 0.000746826
736.0, 0.00485894
738.0, 0.011596
740.0, 0.0214057
742.0, 0.035311
744.0, 0.0545962
746.0, 0.0799613
748.0, 0.110288
750.0, 0.135753
752.0, 0.139503
754.0, 0.114359
756.0, 0.0900995
758.0, 0.080824
760.0, 0.0835802
762.0, 0.0871803
764.0, 0.0839054
766.0, 0.0711793
768.0, 0.0586458
770.0, 0.0484586
772.0, 0.0446983
774.0, 0.0477095
776.0, 0.0586131
778.0, 0.0762525
780.0, 0.0964865
782.0, 0.103919
784.0, 0.0855981
786.0, 0.0563287
788.0, 0.0313626
790.0, 0.0146961
792.0, 0.00551119
794.0, 0.00101445
796.0, 0.000405331
798.0, 6.15739e-05
800.0, 0.00147242
802.0, 0.00380562
804.0, 0.00657194
806.0, 0.0107962
808.0, 0.0148908
810.0, 0.0193063
812.0, 0.0250666
814.0, 0.0322336
816.0, 0.0390765
818.0, 0.0402916
820.0, 0.0380473
822.0, 0.0410976
824.0, 0.0533618
826.0, 0.0712662
828.0, 0.083316
830.0, 0.0832628
832.0, 0.067252
834.0, 0.0472743
836.0, 0.0286322
838.0, 0.0152796
840.0, 0.00588877
842.0, 0.000369023
844.0, 0.00181207
846.0, 0.00124465
848.0, 0.00199803
850.0, 0.00715238
852.0, 0.0131607
854.0, 0.0194222
856.0, 0.0262083
858.0, 0.0328621
860.0, 0.0387376
862.0, 0.0433153
864.0, 0.0432883
866.0, 0.0355114
868.0, 0.025954
870.0, 0.0193075
872.0, 0.0127393
874.0, 0.00776788
876.0, 0.00425169
878.0, 0.00118398
880.0, 0.00100116
882.0, 0.00105465
884.0, 0.00175241
886.0, 0.00124147
888.0, 0.000436093
890.0, 0.00193614
892.0, 0.00460618
894.0, 0.00790288
896.0, 0.0122587
898.0, 0.0175816
900.0, 0.0241844
902.0, 0.0321576
904.0, 0.0423332
906.0, 0.0539858
908.0, 0.0643793
910.0, 0.0722275
912.0, 0.0800993
914.0, 0.0896759
916.0, 0.0988221
918.0, 0.109559
920.0, 0.118991
922.0, 0.125378
924.0, 0.128792
926.0, 0.12852
928.0, 0.121498
930.0, 0.109971
932.0, 0.0968996
934.0, 0.0845208
936.0, 0.0705452
938.0, 0.0589034
940.0, 0.0488981
942.0, 0.0407357
944.0, 0.0331091
946.0, 0.027572
948.0, 0.0226729
950.0, 0.0202327
952.0, 0.0188741
954.0, 0.0187254
956.0, 0.0202303
958.0, 0.0233738
960.0, 0.0308823
962.0, 0.040872
964.0, 0.0564691
966.0, 0.0770268
968.0, 0.109123
970.0, 0.151725
972.0, 0.194964
974.0, 0.204203
976.0, 0.16533
978.0, 0.111604
980.0, 0.0708114
982.0, 0.0443479
984.0, 0.0283913
986.0, 0.0182896
988.0, 0.0112798
990.0, 0.00673611
992.0, 0.0040799
994.0, 0.00152503
996.0, 0.000349852
998.0, 0.00051181
1000.0, 0.000379919
1002.0, 0.000883545
1004.0, 0.000795613
1006.0, 0.00131885
1008.0, 0.000721723
1010.0, 0.000710065
1012.0, 0.000488896
1014.0, 0.000228129
1016.0, 0.000430175
1018.0, 0.000940763
1020.0, 0.00144195
1022.0, 0.00199917
1024.0, 0.0034613
1026.0, 0.00451528
1028.0, 0.00666149
1030.0, 0.00887274
1032.0, 0.00932853
1034.0, 0.0117857
1036.0, 0.0135804
1038.0, 0.0162644
1040.0, 0.0193271
1042.0, 0.0228905
1044.0, 0.0270235
1046.0, 0.0328092
1048.0, 0.038802
1050.0, 0.0445841
1052.0, 0.0513497
1054.0, 0.0569215
1056.0, 0.0634947
1058.0, 0.0688968
1060.0, 0.0741622
1062.0, 0.0789433
1064.0, 0.0826093
1066.0, 0.0846467
1068.0, 0.0841242
1070.0, 0.083177
1072.0, 0.0778939
1074.0, 0.0729382
1076.0, 0.0664893
1078.0, 0.0585139
1080.0, 0.0512512
1082.0, 0.0428727
1084.0, 0.0354619
1086.0, 0.0280441
1088.0, 0.0217253
1090.0, 0.0149591
1092.0, 0.0102354
1094.0, 0.00552108
1096.0, 0.0015122
1098.0, 0.000598668
1100.0, 0.0022335
1102.0, 0.00369638
1104.0, 0.00418102
1106.0, 0.00293211
1108.0, 0.00272226
1110.0, 0.0011876
1112.0, 0.0012471
1114.0, 0.00350076
1116.0, 0.00530486
1118.0, 0.00803657
1120.0, 0.0111128
1122.0, 0.0146287
1124.0, 0.0178648
1126.0, 0.0207347
1128.0, 0.0240875
1130.0, 0.0286411
1132.0, 0.0339754
1134.0, 0.0399038
1136.0, 0.0460517
1138.0, 0.0532954
1140.0, 0.0606304
1142.0, 0.0691678
1144.0, 0.0789097
1146.0, 0.0894336
1148.0, 0.101278
1150.0, 0.114694
1152.0, 0.131185
1154.0, 0.146809
1156.0, 0.16553
1158.0, 0.186186
1160.0, 0.207826
1162.0, 0.233042
1164.0, 0.259785
1166.0, 0.290229
1168.0, 0.323574
1170.0, 0.358009
1172.0, 0.396795
1174.0, 0.43656
1176.0, 0.481371
1178.0, 0.527561
1180.0, 0.579546
1182.0, 0.637632
1184.0, 0.705718
1186.0, 0.778393
1188.0, 0.853807
1190.0, 0.924211
1192.0, 0.978353
1194.0, 0.999805
1196.0, 0.982157
1198.0, 0.9233
1200.0, 0.833782
1202.0, 0.727359
1204.0, 0.621359
1206.0, 0.521589
1208.0, 0.43117
1210.0, 0.351683
1212.0, 0.283186
1214.0, 0.225459
1216.0, 0.175881
1218.0, 0.133426
1220.0, 0.0983783
1222.0, 0.0701437
1224.0, 0.045643
1226.0, 0.0272563
1228.0, 0.0152129
1230.0, 0.00808536
1232.0, 0.00441634
1234.0, 0.00173402
1236.0, 9.68543e-05
1238.0, 0.000262682
1240.0, 0.00163722
1242.0, 0.00199304
1244.0, 0.00327629
1246.0, 0.00290098
1248.0, 0.00232457
1250.0, 0.00135359
1252.0, 5.64464e-05
1254.0, 0.0011633
1256.0, 0.00246314
1258.0, 0.00439775
1260.0, 0.00620491
1262.0, 0.00863727
1264.0, 0.0104413
1266.0, 0.0126958
1268.0, 0.0154878
1270.0, 0.0169105
1272.0, 0.0166332
1274.0, 0.0143208
1276.0, 0.0117307
1278.0, 0.00979403
1280.0, 0.00854832
1282.0, 0.00749571
1284.0, 0.00607002
1286.0, 0.00511689
1288.0, 0.00454894
1290.0, 0.0031036
1292.0, 0.00257252
1294.0, 0.00222476
1296.0, 0.00138809
1298.0, 0.00107647
1300.0, 0.000311553
1302, 0.0
1304, 0.0
1306, 0.0
1308, 0.0
1310, 0.0
1312, 0.0
1314, 0.0
1316, 0.0
1318, 0.0
1320, 0.0
1322, 0.0
1324, 0.0
1326, 0.0
1328, 0.0
1330, 0.0
1332, 0.0
1334, 0.0
1336, 0.0
1338, 0.0
1340, 0.0
1342, 0.0
1344, 0.0
1346, 0.0
1348, 0.0
1350, 0.0
1352, 0.0
1354, 0.0
1356, 0.0
1358, 0.0
1360, 0.0
1362, 0.0
1364, 0.0
1366, 0.0
1368, 0.0
1370, 0.0
1372, 0.0
1374, 0.0
1376, 0.0
1378, 0.0
1380, 0.0
1382, 0.0
1384, 0.0
1386, 0.0
1388, 0.0
1390, 0.0
1392, 0.0
1394, 0.0
1396, 0.0
1398, 0.0
1400, 0.0
1402, 0.0
1404, 0.0
1406, 0.0
1408, 0.0
1410, 0.0
1412, 0.0
1414, 0.0
1416, 0.0
1418, 0.0
1420, 0.0
1422, 0.0
1424, 0.0
1426, 0.0
1428, 0.0
1430, 0.0
1432, 0.0
1434, 0.0
1436, 0.0
1438, 0.0
1440, 0.0
1442, 0.0
1444, 0.0
1446, 0.0
1448, 0.0
1450, 0.0
1452, 0.0
1454, 0.0
1456, 0.0
1458, 0.0
1460, 0.0
1462, 0.0
1464, 0.0
1466, 0.0
1468, 0.0
1470, 0.0
1472, 0.0
1474, 0.0
1476, 0.0
1478, 0.0
1480, 0.0
1482, 0.0
1484, 0.0
1486, 0.0
1488, 0.0
1490, 0.0
1492, 0.0
1494, 0.0
1496, 0.0
1498, 0.0
1500, 0.0
1502, 0.0
1504, 0.0
1506, 0.0
1508, 0.0
1510, 0.0
1512, 0.0
1514, 0.0
1516, 0.0
1518, 0.0
1520, 0.0
1522, 0.0
1524, 0.0
1526, 0.0
1528, 0.0
1530, 0.0
1532, 0.0
1534, 0.0
1536, 0.0
1538, 0.0
1540, 0.0
1542, 0.0
1544, 0.0
1546, 0.0
1548, 0.0
1550, 0.0
1552, 0.0
1554, 0.0
1556, 0.0
1558, 0.0
1560, 0.0
1562, 0.0
1564, 0.0
1566, 0.0
1568, 0.0
1570, 0.0
1572, 0.0
1574, 0.0
1576, 0.0
1578, 0.0
1580, 0.0
1582, 0.0
1584, 0.0
1586, 0.0
1588, 0.0
1590, 0.0
1592, 0.0
1594, 0.0
1596, 0.0
1598, 0.0
1599, 0.0