File: raw data/Dataset_2/Yttriumaluminumgarnet/Yttriumaluminumgarnet__R150067__Raman__780__0__unoriented__Raman_Data_Processed__38853.txt
30, 0.0
32, 0.0
34, 0.0
36, 0.0
38, 0.0
40, 0.0
42, 0.0
44, 0.0
46, 0.0
48, 0.0
50, 0.0
52, 0.0
54, 0.0
56, 0.0
58, 0.0
60, 0.0
62, 0.0
64, 0.0
66, 0.0
68, 0.0
70, 0.0
72, 0.0
74, 0.0
76, 0.0
78, 0.0
80, 0.0
82, 0.0
84, 0.0
86, 0.0
88, 0.0
90, 0.0
92.0, 4.05332e-05
94.0, 0.00260369
96.0, 0.00290875
98.0, 0.0035937
100.0, 0.00494282
102.0, 0.0058192
104.0, 0.0078887
106.0, 0.00991733
108.0, 0.0120084
110.0, 0.0122519
112.0, 0.0123877
114.0, 0.0121525
116.0, 0.0144037
118.0, 0.0167734
120.0, 0.0203845
122.0, 0.0222194
124.0, 0.0206889
126.0, 0.017664
128.0, 0.0153266
130.0, 0.0119231
132.0, 0.00962901
134.0, 0.00690241
136.0, 0.00450718
138.0, 0.0022514
140.0, 0.000138296
142.0, 0.00101802
144.0, 0.00218081
146.0, 0.00293783
148.0, 0.0045899
150.0, 0.00404081
152.0, 0.00384832
154.0, 0.00151711
156.0, 2.98183e-05
158.0, 0.00118643
160.0, 0.00345657
162.0, 0.00562182
164.0, 0.008731
166.0, 0.0123973
168.0, 0.0164193
170.0, 0.0216369
172.0, 0.0294768
174.0, 0.0377811
176.0, 0.0495463
178.0, 0.0612273
180.0, 0.0748477
182.0, 0.0898988
184.0, 0.109708
186.0, 0.129945
188.0, 0.153645
190.0, 0.176228
192.0, 0.196931
194.0, 0.204709
196.0, 0.200807
198.0, 0.182633
200.0, 0.165719
202.0, 0.15434
204.0, 0.151645
206.0, 0.15382
208.0, 0.153332
210.0, 0.143961
212.0, 0.126365
214.0, 0.10692
216.0, 0.0927698
218.0, 0.0869205
220.0, 0.0873151
222.0, 0.0982499
224.0, 0.113669
226.0, 0.135058
228.0, 0.160267
230.0, 0.190915
232.0, 0.226201
234.0, 0.269636
236.0, 0.311668
238.0, 0.352127
240.0, 0.386187
242.0, 0.395737
244.0, 0.379509
246.0, 0.336152
248.0, 0.281864
250.0, 0.224598
252.0, 0.174615
254.0, 0.135275
256.0, 0.0999973
258.0, 0.0727414
260.0, 0.0526576
262.0, 0.0363348
264.0, 0.022955
266.0, 0.0112059
268.0, 0.00398686
270.0, 0.000887975
272.0, 0.00243651
274.0, 0.00219476
276.0, 0.00289884
278.0, 0.0118342
280.0, 0.0239466
282.0, 0.0422764
284.0, 0.0633642
286.0, 0.0893231
288.0, 0.119913
290.0, 0.151018
292.0, 0.177665
294.0, 0.193288
296.0, 0.189696
298.0, 0.165121
300.0, 0.136814
302.0, 0.108327
304.0, 0.0886768
306.0, 0.0732054
308.0, 0.0619093
310.0, 0.0525495
312.0, 0.0471941
314.0, 0.0427141
316.0, 0.0403043
318.0, 0.0379065
320.0, 0.0375576
322.0, 0.036382
324.0, 0.0348765
326.0, 0.0336605
328.0, 0.0302997
330.0, 0.0220769
332.0, 0.0125485
334.0, 0.00265939
336.0, 0.00497437
338.0, 0.0111939
340.0, 0.0145222
342.0, 0.0164957
344.0, 0.014518
346.0, 0.0119289
348.0, 0.00638328
350.0, 0.00203459
352.0, 0.0131696
354.0, 0.0249056
356.0, 0.0411043
358.0, 0.0581546
360.0, 0.078822
362.0, 0.101422
364.0, 0.129448
366.0, 0.157378
368.0, 0.191336
370.0, 0.22857
372.0, 0.270475
374.0, 0.310931
376.0, 0.358547
378.0, 0.400669
380.0, 0.446828
382.0, 0.485159
384.0, 0.509388
386.0, 0.513868
388.0, 0.49854
390.0, 0.479723
392.0, 0.458572
394.0, 0.432519
396.0, 0.398795
398.0, 0.363233
400.0, 0.333788
402.0, 0.31559
404.0, 0.309622
406.0, 0.312529
408.0, 0.314758
410.0, 0.314596
412.0, 0.310991
414.0, 0.309019
416.0, 0.315216
418.0, 0.334631
420.0, 0.364563
422.0, 0.405492
424.0, 0.455177
426.0, 0.498755
428.0, 0.539365
430.0, 0.566218
432.0, 0.578157
434.0, 0.59043
436.0, 0.615646
438.0, 0.667784
440.0, 0.74677
442.0, 0.849928
444.0, 0.944479
446.0, 0.997919
448.0, 0.97032
450.0, 0.875537
452.0, 0.741164
454.0, 0.601819
456.0, 0.477052
458.0, 0.368485
460.0, 0.280344
462.0, 0.205807
464.0, 0.144644
466.0, 0.0913333
468.0, 0.0530219
470.0, 0.0213816
472.0, 0.00110788
474.0, 0.0150117
476.0, 0.0198475
478.0, 0.0159011
480.0, 0.00508982
482.0, 0.0184737
484.0, 0.0515067
486.0, 0.0930476
488.0, 0.14672
490.0, 0.202707
492.0, 0.262721
494.0, 0.317716
496.0, 0.367816
498.0, 0.414392
500.0, 0.455592
502.0, 0.48806
504.0, 0.522617
506.0, 0.55475
508.0, 0.581828
510.0, 0.609247
512.0, 0.632643
514.0, 0.64826
516.0, 0.646752
518.0, 0.615074
520.0, 0.559676
522.0, 0.47959
524.0, 0.385852
526.0, 0.296544
528.0, 0.218501
530.0, 0.154422
532.0, 0.100451
534.0, 0.0591494
536.0, 0.0280879
538.0, 0.00951423
540.0, 0.00357826
542.0, 0.0115717
544.0, 0.013664
546.0, 0.011449
548.0, 0.00525522
550.0, 0.00535287
552.0, 0.022761
554.0, 0.0472294
556.0, 0.0790085
558.0, 0.117544
560.0, 0.159981
562.0, 0.210303
564.0, 0.271138
566.0, 0.336593
568.0, 0.413041
570.0, 0.491891
572.0, 0.579036
574.0, 0.669684
576.0, 0.762852
578.0, 0.846281
580.0, 0.903288
582.0, 0.924809
584.0, 0.893056
586.0, 0.813185
588.0, 0.695172
590.0, 0.564955
592.0, 0.438923
594.0, 0.333233
596.0, 0.246515
598.0, 0.179372
600.0, 0.124755
602.0, 0.0821097
604.0, 0.0491464
606.0, 0.0247087
608.0, 0.00582956
610.0, 0.00265319
612.0, 0.00828406
614.0, 0.00722062
616.0, 0.00193527
618.0, 0.00860573
620.0, 0.0266081
622.0, 0.0534856
624.0, 0.0871357
626.0, 0.131375
628.0, 0.18966
630.0, 0.256024
632.0, 0.332786
634.0, 0.425437
636.0, 0.527729
638.0, 0.633626
640.0, 0.74324
642.0, 0.835236
644.0, 0.9013
646.0, 0.918318
648.0, 0.877044
650.0, 0.779176
652.0, 0.656126
654.0, 0.523773
656.0, 0.406716
658.0, 0.307221
660.0, 0.230524
662.0, 0.171037
664.0, 0.126268
666.0, 0.0955949
668.0, 0.0728931
670.0, 0.0561684
672.0, 0.0468897
674.0, 0.0425059
676.0, 0.0434731
678.0, 0.0494966
680.0, 0.0601483
682.0, 0.0721298
684.0, 0.0863777
686.0, 0.102541
688.0, 0.116483
690.0, 0.126997
692.0, 0.134492
694.0, 0.13708
696.0, 0.13607
698.0, 0.130454
700.0, 0.121727
702.0, 0.109224
704.0, 0.0945869
706.0, 0.0801419
708.0, 0.0651181
710.0, 0.0483809
712.0, 0.037737
714.0, 0.0263774
716.0, 0.01641
718.0, 0.00786836
720.0, 0.00227707
722.0, 0.00345337
724.0, 0.00717178
726.0, 0.00782471
728.0, 0.00688062
730.0, 0.00389599
732.0, 0.00179661
734.0, 0.00908137
736.0, 0.0196709
738.0, 0.0333472
740.0, 0.0509829
742.0, 0.0709289
744.0, 0.0929536
746.0, 0.116386
748.0, 0.139192
750.0, 0.162093
752.0, 0.183068
754.0, 0.199152
756.0, 0.208788
758.0, 0.217187
760.0, 0.214051
762.0, 0.208623
764.0, 0.197232
766.0, 0.185021
768.0, 0.169306
770.0, 0.152008
772.0, 0.134703
774.0, 0.115735
776.0, 0.10118
778.0, 0.0864783
780.0, 0.0719668
782.0, 0.0592332
784.0, 0.0468585
786.0, 0.0361385
788.0, 0.0261884
790.0, 0.019519
792.0, 0.0130676
794.0, 0.00830388
796.0, 0.00521417
798.0, 0.00258486
800.0, 0.00152834
802.0, 0.000240499
804.0, 0.00117511
806.0, 0.000644069
808.0, 0.00179576
810.0, 0.000924268
812.0, 0.000175329
814.0, 0.00171726
816.0, 0.003048
818.0, 0.00401829
820.0, 0.00554945
822.0, 0.00817248
824.0, 0.0091575
826.0, 0.0112609
828.0, 0.0143926
830.0, 0.0186624
832.0, 0.0212217
834.0, 0.0245676
836.0, 0.0268822
838.0, 0.0303169
840.0, 0.0305078
842.0, 0.0304763
844.0, 0.0282929
846.0, 0.0262698
848.0, 0.022557
850.0, 0.0195588
852.0, 0.0148053
854.0, 0.0121228
856.0, 0.00835431
858.0, 0.00600717
860.0, 0.00461086
862.0, 0.00361541
864.0, 0.00131723
866.0, 0.000449346
868.0, 0.000173418
870.0, 0.00117061
872.0, 0.000396445
874.0, 0.0002586
876.0, 0.000397417
878.0, 0.000530963
880.0, 0.000202262
882.0, 0.00088332
884.0, 0.000238751
886.0, 0.00141446
888.0, 0.00180042
890.0, 0.0040344
892.0, 0.00475736
894.0, 0.00576903
896.0, 0.00640202
898.0, 0.00744128
900.0, 0.00794117
902.0, 0.0079478
904.0, 0.00690049
906.0, 0.00545192
908.0, 0.00694858
910.0, 0.0052425
912.0, 0.00526911
914.0, 0.00410734
916.0, 0.00433399
918.0, 0.00464485
920.0, 0.00484008
922.0, 0.00361208
924.0, 0.00372302
926.0, 0.00267445
928.0, 0.00314012
930.0, 0.00396107
932.0, 0.00395268
934.0, 0.00409531
936.0, 0.00405193
938.0, 0.00365651
940.0, 0.00371992
942.0, 0.002303
944.0, 0.00167455
946.0, 0.00149606
948.0, 0.00101178
950.0, 0.00107857
952.0, 0.00207342
954.0, 0.00285952
956.0, 0.00366028
958.0, 0.00510555
960.0, 0.00809225
962.0, 0.00971972
964.0, 0.011664
966.0, 0.0142091
968.0, 0.0177996
970.0, 0.0206461
972.0, 0.0244707
974.0, 0.0278994
976.0, 0.0305593
978.0, 0.0331489
980.0, 0.0343569
982.0, 0.0358346
984.0, 0.0348706
986.0, 0.0353677
988.0, 0.0332661
990.0, 0.0309618
992.0, 0.0284778
994.0, 0.0259224
996.0, 0.0234104
998.0, 0.0203051
1000.0, 0.0187789
1002.0, 0.0167886
1004.0, 0.0151568
1006.0, 0.0127574
1008.0, 0.0100744
1010.0, 0.00754859
1012.0, 0.00566147
1014.0, 0.00262154
1016.0, 0.00226455
1018.0, 0.00141835
1020.0, 0.00016051
1022.0, 0.000918867
1024.0, 0.00237203
1026.0, 0.0029281
1028.0, 0.0025546
1030.0, 0.00248198
1032.0, 0.00180746
1034.0, 0.000438853
1036.0, 0.0044006
1038.0, 0.00862857
1040.0, 0.0158477
1042.0, 0.0249516
1044.0, 0.0348041
1046.0, 0.0409268
1048.0, 0.0431628
1050.0, 0.0382899
1052.0, 0.0355953
1054.0, 0.0327144
1056.0, 0.0316255
1058.0, 0.0311932
1060.0, 0.0322952
1062.0, 0.0310816
1064.0, 0.0276554
1066.0, 0.0270639
1068.0, 0.0273789
1070.0, 0.0282733
1072.0, 0.0346144
1074.0, 0.0424259
1076.0, 0.0575847
1078.0, 0.0747483
1080.0, 0.103427
1082.0, 0.13993
1084.0, 0.189293
1086.0, 0.251373
1088.0, 0.323209
1090.0, 0.402356
1092.0, 0.465283
1094.0, 0.482547
1096.0, 0.444341
1098.0, 0.360801
1100.0, 0.26879
1102.0, 0.189208
1104.0, 0.130324
1106.0, 0.0909212
1108.0, 0.0666602
1110.0, 0.0465538
1112.0, 0.0330382
1114.0, 0.0240552
1116.0, 0.0157117
1118.0, 0.0102792
1120.0, 0.00713811
1122.0, 0.00388332
1124.0, 0.000490924
1126.0, 0.00283671
1128.0, 0.00265402
1130.0, 0.00265739
1132.0, 0.000258407
1134.0, 0.00352124
1136.0, 0.00825432
1138.0, 0.0151253
1140.0, 0.0246803
1142.0, 0.0339205
1144.0, 0.0430661
1146.0, 0.0486716
1148.0, 0.0453633
1150.0, 0.0344052
1152.0, 0.0208576
1154.0, 0.0131622
1156.0, 0.00972597
1158.0, 0.0111791
1160.0, 0.01531
1162.0, 0.0241537
1164.0, 0.0318316
1166.0, 0.0417369
1168.0, 0.0499912
1170.0, 0.0559682
1172.0, 0.0630999
1174.0, 0.0630365
1176.0, 0.066412
1178.0, 0.0665115
1180.0, 0.0653254
1182.0, 0.0643329
1184.0, 0.0617137
1186.0, 0.0593627
1188.0, 0.059812
1190.0, 0.0589882
1192.0, 0.0556799
1194.0, 0.0516814
1196.0, 0.051429
1198.0, 0.0507415
1200.0, 0.0527928
1202.0, 0.0521198
1204.0, 0.0479167
1206.0, 0.0421927
1208.0, 0.0363277
1210.0, 0.0279295
1212.0, 0.0232895
1214.0, 0.016971
1216.0, 0.0147578
1218.0, 0.0161198
1220.0, 0.0182242
1222.0, 0.0288206
1224.0, 0.0463206
1226.0, 0.0690034
1228.0, 0.110442
1230.0, 0.191529
1232.0, 0.270967
1234.0, 0.342535
1236.0, 0.368602
1238.0, 0.327139
1240.0, 0.24469
1242.0, 0.163209
1244.0, 0.104994
1246.0, 0.0676546
1248.0, 0.0431464
1250.0, 0.0239573
1252.0, 0.00728478
1254.0, 0.00399827
1256.0, 0.00848542
1258.0, 0.00519614
1260.0, 0.0108872
1262.0, 0.0321838
1264.0, 0.0571994
1266.0, 0.075063
1268.0, 0.0837138
1270.0, 0.0752153
1272.0, 0.0489013
1274.0, 0.0321883
1276.0, 0.0279062
1278.0, 0.0210243
1280.0, 0.0191412
1282.0, 0.0119672
1284.0, 0.0072578
1286, 0.0
1288, 0.0
1290, 0.0
1292, 0.0
1294, 0.0
1296, 0.0
1298, 0.0
1300, 0.0
1302, 0.0
1304, 0.0
1306, 0.0
1308, 0.0
1310, 0.0
1312, 0.0
1314, 0.0
1316, 0.0
1318, 0.0
1320, 0.0
1322, 0.0
1324, 0.0
1326, 0.0
1328, 0.0
1330, 0.0
1332, 0.0
1334, 0.0
1336, 0.0
1338, 0.0
1340, 0.0
1342, 0.0
1344, 0.0
1346, 0.0
1348, 0.0
1350, 0.0
1352, 0.0
1354, 0.0
1356, 0.0
1358, 0.0
1360, 0.0
1362, 0.0
1364, 0.0
1366, 0.0
1368, 0.0
1370, 0.0
1372, 0.0
1374, 0.0
1376, 0.0
1378, 0.0
1380, 0.0
1382, 0.0
1384, 0.0
1386, 0.0
1388, 0.0
1390, 0.0
1392, 0.0
1394, 0.0
1396, 0.0
1398, 0.0
1400, 0.0
1402, 0.0
1404, 0.0
1406, 0.0
1408, 0.0
1410, 0.0
1412, 0.0
1414, 0.0
1416, 0.0
1418, 0.0
1420, 0.0
1422, 0.0
1424, 0.0
1426, 0.0
1428, 0.0
1430, 0.0
1432, 0.0
1434, 0.0
1436, 0.0
1438, 0.0
1440, 0.0
1442, 0.0
1444, 0.0
1446, 0.0
1448, 0.0
1450, 0.0
1452, 0.0
1454, 0.0
1456, 0.0
1458, 0.0
1460, 0.0
1462, 0.0
1464, 0.0
1466, 0.0
1468, 0.0
1470, 0.0
1472, 0.0
1474, 0.0
1476, 0.0
1478, 0.0
1480, 0.0
1482, 0.0
1484, 0.0
1486, 0.0
1488, 0.0
1490, 0.0
1492, 0.0
1494, 0.0
1496, 0.0
1498, 0.0
1500, 0.0
1502, 0.0
1504, 0.0
1506, 0.0
1508, 0.0
1510, 0.0
1512, 0.0
1514, 0.0
1516, 0.0
1518, 0.0
1520, 0.0
1522, 0.0
1524, 0.0
1526, 0.0
1528, 0.0
1530, 0.0
1532, 0.0
1534, 0.0
1536, 0.0
1538, 0.0
1540, 0.0
1542, 0.0
1544, 0.0
1546, 0.0
1548, 0.0
1550, 0.0
1552, 0.0
1554, 0.0
1556, 0.0
1558, 0.0
1560, 0.0
1562, 0.0
1564, 0.0
1566, 0.0
1568, 0.0
1570, 0.0
1572, 0.0
1574, 0.0
1576, 0.0
1578, 0.0
1580, 0.0
1582, 0.0
1584, 0.0
1586, 0.0
1588, 0.0
1590, 0.0
1592, 0.0
1594, 0.0
1596, 0.0
1598, 0.0
1599, 0.0