File: raw data/Dataset_2/Ferrohogbomite2N2S/Ferrohogbomite2N2S__R070156__Raman__785__0__unoriented__Raman_Data_Processed__19309.txt
30, 0.0
32, 0.0
34, 0.0
36, 0.0
38, 0.0
40, 0.0
42, 0.0
44, 0.0
46, 0.0
48, 0.0
50, 0.0
52, 0.0
54, 0.0
56, 0.0
58, 0.0
60, 0.0
62, 0.0
64, 0.0
66, 0.0
68, 0.0
70, 0.0
72, 0.0
74, 0.0
76, 0.0
78, 0.0
80, 0.0
82, 0.0
84, 0.0
86, 0.0
88, 0.0
90, 0.0
92, 0.0
94, 0.0
96, 0.0
98, 0.0
100, 0.0
102, 0.0
104, 0.0
106, 0.0
108, 0.0
110, 0.0
112, 0.0
114, 0.0
116, 0.0
118, 0.0
120, 0.0
122, 0.0
124, 0.0
126, 0.0
128, 0.0
130, 0.0
132, 0.0
134, 0.0
136, 0.0
138, 0.0
140, 0.0
142, 0.0
144, 0.0
146, 0.0
148, 0.0
150.0, 0.0245137
152.0, 0.0264935
154.0, 0.0212162
156.0, 0.010057
158.0, 0.00348946
160.0, 0.0129353
162.0, 0.0362032
164.0, 0.0290339
166.0, 0.0386591
168.0, 0.0631167
170.0, 0.0702514
172.0, 0.0688409
174.0, 0.0607939
176.0, 0.0691303
178.0, 0.0700516
180.0, 0.0684606
182.0, 0.0606858
184.0, 0.088897
186.0, 0.087133
188.0, 0.0856808
190.0, 0.075725
192.0, 0.0700311
194.0, 0.0837781
196.0, 0.0792907
198.0, 0.0715187
200.0, 0.0740471
202.0, 0.086796
204.0, 0.0297892
206.0, 0.052366
208.0, 0.0393884
210.0, 0.0200717
212.0, 0.0102795
214.0, 0.0183347
216.0, 0.0125546
218.0, 0.0147455
220.0, 0.00581999
222.0, 0.0147646
224.0, 0.00277893
226.0, 0.00920153
228.0, 0.00474459
230.0, 0.0148178
232.0, 0.019962
234.0, 0.00116685
236.0, 0.0101233
238.0, 0.0051301
240.0, 0.0169903
242.0, 0.00371441
244.0, 0.00338939
246.0, 0.00114348
248.0, 0.00448887
250.0, 0.0028022
252.0, 0.00369227
254.0, 0.00641465
256.0, 0.00513507
258.0, 0.00807391
260.0, 0.00487621
262.0, 0.00893674
264.0, 0.01626
266.0, 0.0236571
268.0, 0.0270367
270.0, 0.0215336
272.0, 0.0270415
274.0, 0.0279013
276.0, 0.0389869
278.0, 0.0351403
280.0, 0.0410216
282.0, 0.053707
284.0, 0.0557991
286.0, 0.0664606
288.0, 0.0708991
290.0, 0.0909577
292.0, 0.0863039
294.0, 0.0935593
296.0, 0.0893911
298.0, 0.093654
300.0, 0.114411
302.0, 0.0973499
304.0, 0.110072
306.0, 0.0966677
308.0, 0.09763
310.0, 0.106147
312.0, 0.10758
314.0, 0.0983623
316.0, 0.0861582
318.0, 0.0859823
320.0, 0.0846909
322.0, 0.0798025
324.0, 0.0666296
326.0, 0.057908
328.0, 0.0601398
330.0, 0.0443528
332.0, 0.0540463
334.0, 0.0438982
336.0, 0.0377487
338.0, 0.021858
340.0, 0.0261788
342.0, 0.0155238
344.0, 0.0222343
346.0, 0.0210317
348.0, 0.0271711
350.0, 0.0234563
352.0, 0.0247178
354.0, 0.0159065
356.0, 0.0175108
358.0, 0.0164734
360.0, 0.00419392
362.0, 0.00507117
364.0, 0.0122869
366.0, 0.0107655
368.0, 0.0137438
370.0, 0.00799059
372.0, 0.0031841
374.0, 0.00378666
376.0, 0.000755001
378.0, 0.0163343
380.0, 0.0318834
382.0, 0.0153742
384.0, 0.02416
386.0, 0.011931
388.0, 0.0292807
390.0, 0.0113058
392.0, 0.0356161
394.0, 0.0486463
396.0, 0.0535099
398.0, 0.0522929
400.0, 0.0635512
402.0, 0.0592271
404.0, 0.0445581
406.0, 0.0576779
408.0, 0.0299684
410.0, 0.0360243
412.0, 0.0350222
414.0, 0.0253971
416.0, 0.0199327
418.0, 0.0224008
420.0, 0.0154919
422.0, 0.0181525
424.0, 0.018177
426.0, 0.0184973
428.0, 0.0159121
430.0, 0.0165381
432.0, 0.00124233
434.0, 0.0123353
436.0, 0.0153022
438.0, 0.00700481
440.0, 0.00313564
442.0, 0.0123017
444.0, 0.00958936
446.0, 0.0101735
448.0, 0.000517626
450.0, 0.00851742
452.0, 0.0019027
454.0, 0.00948732
456.0, 0.0124615
458.0, 0.0100414
460.0, 0.00319024
462.0, 0.00219497
464.0, 0.00723547
466.0, 0.00186518
468.0, 0.0139535
470.0, 0.014791
472.0, 0.00723729
474.0, 0.00142741
476.0, 0.0164481
478.0, 0.0156775
480.0, 0.00885932
482.0, 0.00841067
484.0, 0.00719799
486.0, 0.0199919
488.0, 0.00865742
490.0, 0.0142595
492.0, 0.00531278
494.0, 0.00822831
496.0, 0.00632459
498.0, 0.0112829
500.0, 0.0124519
502.0, 0.0107475
504.0, 0.0203498
506.0, 0.0160745
508.0, 0.0236567
510.0, 0.0330934
512.0, 0.0313757
514.0, 0.0443873
516.0, 0.0342896
518.0, 0.0279722
520.0, 0.0511317
522.0, 0.046011
524.0, 0.0574397
526.0, 0.0419904
528.0, 0.0589294
530.0, 0.0521253
532.0, 0.0397111
534.0, 0.0625829
536.0, 0.0512906
538.0, 0.0610662
540.0, 0.0513463
542.0, 0.0576383
544.0, 0.0564152
546.0, 0.0491176
548.0, 0.0463431
550.0, 0.030886
552.0, 0.0430258
554.0, 0.0201494
556.0, 0.0223927
558.0, 0.00779748
560.0, 0.0187648
562.0, 0.016293
564.0, 0.0158542
566.0, 0.0073535
568.0, 0.00360164
570.0, 0.00279168
572.0, 0.00868246
574.0, 0.00845585
576.0, 0.00894955
578.0, 0.00103015
580.0, 0.00524223
582.0, 0.00276393
584.0, 0.00226606
586.0, 0.0022784
588.0, 0.0145559
590.0, 0.00517265
592.0, 0.00807578
594.0, 0.00365589
596.0, 0.00217761
598.0, 0.00163044
600.0, 0.0118245
602.0, 0.012443
604.0, 0.00712571
606.0, 0.0110723
608.0, 0.0121605
610.0, 0.0321593
612.0, 0.0310458
614.0, 0.040354
616.0, 0.0303405
618.0, 0.048683
620.0, 0.0600556
622.0, 0.0612969
624.0, 0.0775025
626.0, 0.0749062
628.0, 0.0851383
630.0, 0.0907893
632.0, 0.106911
634.0, 0.120139
636.0, 0.139086
638.0, 0.162375
640.0, 0.187645
642.0, 0.232609
644.0, 0.266933
646.0, 0.290693
648.0, 0.35814
650.0, 0.409588
652.0, 0.481422
654.0, 0.562586
656.0, 0.620614
658.0, 0.696785
660.0, 0.773872
662.0, 0.852228
664.0, 0.897227
666.0, 0.944917
668.0, 0.999075
670.0, 0.96383
672.0, 0.964898
674.0, 0.910132
676.0, 0.866525
678.0, 0.816336
680.0, 0.75857
682.0, 0.695637
684.0, 0.637766
686.0, 0.563041
688.0, 0.519685
690.0, 0.455718
692.0, 0.42269
694.0, 0.375281
696.0, 0.333232
698.0, 0.292811
700.0, 0.259567
702.0, 0.236447
704.0, 0.199119
706.0, 0.162839
708.0, 0.139473
710.0, 0.122885
712.0, 0.106313
714.0, 0.084109
716.0, 0.0583109
718.0, 0.0625905
720.0, 0.0314551
722.0, 0.0305926
724.0, 0.0144423
726.0, 0.00225843
728.0, 0.0131215
730.0, 0.0101894
732.0, 0.00106285
734.0, 0.0038289
736.0, 0.00454362
738.0, 0.00770289
740.0, 0.00408849
742.0, 0.00451373
744.0, 0.00119771
746.0, 0.00391193
748.0, 0.000302092
750.0, 0.00210633
752.0, 0.0109939
754.0, 0.00153919
756.0, 0.0127371
758.0, 0.00737452
760.0, 0.00530464
762.0, 0.00724077
764.0, 0.000367218
766.0, 0.00243993
768.0, 0.0035693
770.0, 0.00313304
772.0, 0.00565216
774.0, 0.00697561
776.0, 0.0135249
778.0, 0.00303637
780.0, 0.0123231
782.0, 0.00678485
784.0, 0.00333085
786.0, 0.00685402
788.0, 0.00626053
790.0, 0.00536359
792.0, 0.0103904
794.0, 0.00737505
796.0, 0.00513608
798.0, 0.0117675
800.0, 0.0100456
802.0, 0.00277787
804.0, 0.00903665
806.0, 0.00553847
808.0, 0.0122532
810.0, 0.0185504
812.0, 0.00742694
814.0, 0.0127078
816.0, 0.0165733
818.0, 0.0181057
820.0, 0.0164016
822.0, 0.0217424
824.0, 0.0162683
826.0, 0.0229879
828.0, 0.00674242
830.0, 0.0115336
832.0, 0.00533598
834.0, 0.0219048
836.0, 0.0113311
838.0, 0.0144624
840.0, 0.0240642
842.0, 0.0145174
844.0, 0.0175848
846.0, 0.0148093
848.0, 0.0178657
850.0, 0.0168886
852.0, 0.0225778
854.0, 0.0193969
856.0, 0.0191533
858.0, 0.00782952
860.0, 0.0267205
862.0, 0.0198685
864.0, 0.0113061
866.0, 0.0188154
868.0, 0.0263087
870.0, 0.0082415
872.0, 0.0127183
874.0, 0.00958928
876.0, 0.0183197
878.0, 0.00833473
880.0, 0.00979703
882.0, 0.0137734
884.0, 0.0181872
886.0, 0.00992899
888.0, 0.0230455
890.0, 0.015495
892.0, 0.0127546
894.0, 0.0126269
896.0, 0.0203383
898.0, 0.0213595
900.0, 0.0171924
902.0, 0.0173067
904.0, 0.0105695
906.0, 0.0169969
908.0, 0.00983829
910.0, 0.0227211
912.0, 0.0112274
914.0, 0.0104778
916.0, 0.0191029
918.0, 0.0121927
920.0, 0.00309621
922.0, 0.0164545
924.0, 0.00392583
926.0, 0.00206319
928.0, 0.00645423
930.0, 0.0163273
932.0, 0.0153292
934.0, 0.00468775
936.0, 0.0132275
938.0, 0.011137
940.0, 0.0146481
942.0, 0.0135708
944.0, 0.0205417
946.0, 0.00716513
948.0, 0.00262958
950.0, 0.0236308
952.0, 0.0020748
954.0, 0.00817419
956.0, 0.0097119
958.0, 0.00405167
960.0, 0.00518656
962.0, 0.00696623
964.0, 0.0205389
966.0, 0.0126341
968.0, 0.00831673
970.0, 0.0166242
972.0, 0.00441036
974.0, 0.0166332
976.0, 0.0113775
978.0, 0.00259379
980.0, 0.00350332
982.0, 0.0204024
984.0, 0.00934368
986.0, 0.00213829
988.0, 0.0167374
990.0, 0.0145671
992.0, 0.0152157
994.0, 0.00385676
996.0, 0.0129508
998.0, 7.58448e-05
1000.0, 0.000991133
1002.0, 0.0113807
1004.0, 0.011287
1006.0, 0.00759956
1008.0, 0.0120313
1010.0, 0.00202572
1012.0, 0.0154852
1014.0, 0.0063222
1016.0, 0.00535826
1018.0, 0.0150154
1020.0, 0.0104351
1022.0, 0.01061
1024.0, 0.00978257
1026.0, 0.011284
1028.0, 0.00471292
1030.0, 0.0143164
1032.0, 0.0013598
1034.0, 0.00127357
1036.0, 0.00911032
1038.0, 0.00905599
1040.0, 0.0114175
1042.0, 0.00794857
1044.0, 0.013048
1046.0, 0.0174561
1048.0, 0.00113696
1050.0, 0.0148985
1052.0, 0.00276038
1054.0, 0.0138791
1056.0, 0.0176472
1058.0, 0.00408325
1060.0, 0.0081203
1062.0, 0.0101872
1064.0, 0.0105032
1066.0, 0.0109077
1068.0, 0.00568741
1070.0, 0.013813
1072.0, 0.0101925
1074.0, 0.00657987
1076.0, 0.00117537
1078.0, 0.0114892
1080.0, 0.0176905
1082.0, 0.0104184
1084.0, 0.0127436
1086.0, 0.0111055
1088.0, 0.0118781
1090.0, 0.012133
1092.0, 0.00468829
1094.0, 0.00779195
1096.0, 0.00341224
1098.0, 0.0025232
1100.0, 0.0116446
1102.0, 0.00266478
1104.0, 0.0198291
1106.0, 0.012614
1108.0, 0.00844319
1110.0, 0.00601017
1112.0, 0.00887617
1114.0, 0.00748295
1116.0, 0.00341844
1118.0, 0.0132118
1120.0, 0.01014
1122.0, 0.0162025
1124.0, 0.0153613
1126.0, 0.0253872
1128.0, 0.010572
1130.0, 0.0106492
1132.0, 0.0226496
1134.0, 0.0183528
1136.0, 0.0123602
1138.0, 0.00801933
1140.0, 0.0224204
1142.0, 0.0219742
1144.0, 0.00998147
1146.0, 0.0112972
1148.0, 0.0266664
1150.0, 0.0101751
1152.0, 0.019248
1154.0, 0.0177264
1156.0, 0.011021
1158.0, 0.0119158
1160.0, 0.0033298
1162.0, 0.00588943
1164.0, 0.0105489
1166.0, 0.00979318
1168.0, 0.0139173
1170.0, 0.00685822
1172.0, 0.0153091
1174.0, 0.00395797
1176.0, 0.0159526
1178.0, 0.0200076
1180.0, 0.0186177
1182.0, 0.0205922
1184.0, 0.00860961
1186.0, 0.0142978
1188.0, 0.0137567
1190.0, 0.0209494
1192.0, 0.0139286
1194.0, 0.0171265
1196.0, 0.0177374
1198.0, 0.00330755
1200.0, 0.0137452
1202.0, 0.00589027
1204.0, 0.000900477
1206.0, 0.0144165
1208.0, 0.0247946
1210.0, 0.00823403
1212.0, 0.00565633
1214.0, 0.0167911
1216.0, 0.00172931
1218.0, 0.00219421
1220.0, 0.00342637
1222.0, 0.000816795
1224.0, 0.00448417
1226, 0.0
1228, 0.0
1230, 0.0
1232, 0.0
1234, 0.0
1236, 0.0
1238, 0.0
1240, 0.0
1242, 0.0
1244, 0.0
1246, 0.0
1248, 0.0
1250, 0.0
1252, 0.0
1254, 0.0
1256, 0.0
1258, 0.0
1260, 0.0
1262, 0.0
1264, 0.0
1266, 0.0
1268, 0.0
1270, 0.0
1272, 0.0
1274, 0.0
1276, 0.0
1278, 0.0
1280, 0.0
1282, 0.0
1284, 0.0
1286, 0.0
1288, 0.0
1290, 0.0
1292, 0.0
1294, 0.0
1296, 0.0
1298, 0.0
1300, 0.0
1302, 0.0
1304, 0.0
1306, 0.0
1308, 0.0
1310, 0.0
1312, 0.0
1314, 0.0
1316, 0.0
1318, 0.0
1320, 0.0
1322, 0.0
1324, 0.0
1326, 0.0
1328, 0.0
1330, 0.0
1332, 0.0
1334, 0.0
1336, 0.0
1338, 0.0
1340, 0.0
1342, 0.0
1344, 0.0
1346, 0.0
1348, 0.0
1350, 0.0
1352, 0.0
1354, 0.0
1356, 0.0
1358, 0.0
1360, 0.0
1362, 0.0
1364, 0.0
1366, 0.0
1368, 0.0
1370, 0.0
1372, 0.0
1374, 0.0
1376, 0.0
1378, 0.0
1380, 0.0
1382, 0.0
1384, 0.0
1386, 0.0
1388, 0.0
1390, 0.0
1392, 0.0
1394, 0.0
1396, 0.0
1398, 0.0
1400, 0.0
1402, 0.0
1404, 0.0
1406, 0.0
1408, 0.0
1410, 0.0
1412, 0.0
1414, 0.0
1416, 0.0
1418, 0.0
1420, 0.0
1422, 0.0
1424, 0.0
1426, 0.0
1428, 0.0
1430, 0.0
1432, 0.0
1434, 0.0
1436, 0.0
1438, 0.0
1440, 0.0
1442, 0.0
1444, 0.0
1446, 0.0
1448, 0.0
1450, 0.0
1452, 0.0
1454, 0.0
1456, 0.0
1458, 0.0
1460, 0.0
1462, 0.0
1464, 0.0
1466, 0.0
1468, 0.0
1470, 0.0
1472, 0.0
1474, 0.0
1476, 0.0
1478, 0.0
1480, 0.0
1482, 0.0
1484, 0.0
1486, 0.0
1488, 0.0
1490, 0.0
1492, 0.0
1494, 0.0
1496, 0.0
1498, 0.0
1500, 0.0
1502, 0.0
1504, 0.0
1506, 0.0
1508, 0.0
1510, 0.0
1512, 0.0
1514, 0.0
1516, 0.0
1518, 0.0
1520, 0.0
1522, 0.0
1524, 0.0
1526, 0.0
1528, 0.0
1530, 0.0
1532, 0.0
1534, 0.0
1536, 0.0
1538, 0.0
1540, 0.0
1542, 0.0
1544, 0.0
1546, 0.0
1548, 0.0
1550, 0.0
1552, 0.0
1554, 0.0
1556, 0.0
1558, 0.0
1560, 0.0
1562, 0.0
1564, 0.0
1566, 0.0
1568, 0.0
1570, 0.0
1572, 0.0
1574, 0.0
1576, 0.0
1578, 0.0
1580, 0.0
1582, 0.0
1584, 0.0
1586, 0.0
1588, 0.0
1590, 0.0
1592, 0.0
1594, 0.0
1596, 0.0
1598, 0.0
1599, 0.0