File: raw data/Dataset_2/Ferrohogbomite2N2S/Ferrohogbomite2N2S__R070156__Raman__532__0__unoriented__Raman_Data_Processed__19307.txt
30, 0.0
32, 0.0
34, 0.0
36, 0.0
38, 0.0
40, 0.0
42, 0.0
44, 0.0
46, 0.0
48, 0.0
50, 0.0
52, 0.0
54, 0.0
56, 0.0
58, 0.0
60, 0.0
62, 0.0
64, 0.0
66, 0.0
68, 0.0
70, 0.0
72, 0.0
74, 0.0
76, 0.0
78, 0.0
80, 0.0
82, 0.0
84, 0.0
86, 0.0
88, 0.0
90, 0.0
92, 0.0
94, 0.0
96, 0.0
98, 0.0
100, 0.0
102, 0.0
104, 0.0
106, 0.0
108, 0.0
110, 0.0
112, 0.0
114, 0.0
116, 0.0
118, 0.0
120, 0.0
122, 0.0
124, 0.0
126, 0.0
128, 0.0
130, 0.0
132, 0.0
134, 0.0
136.0, 0.0125465
138.0, 0.00548302
140.0, 0.0435755
142.0, 0.0344868
144.0, 0.0011217
146.0, 0.0424536
148.0, 0.0443743
150.0, 0.0427452
152.0, 0.0660479
154.0, 0.0657502
156.0, 0.0637974
158.0, 0.0473623
160.0, 0.0536505
162.0, 0.0554518
164.0, 0.0604719
166.0, 0.0513544
168.0, 0.0213719
170.0, 0.0568971
172.0, 0.05086
174.0, 0.0463234
176.0, 0.0549823
178.0, 0.0704565
180.0, 0.0632927
182.0, 0.0455776
184.0, 0.0751417
186.0, 0.0787492
188.0, 0.0924799
190.0, 0.0794002
192.0, 0.0894071
194.0, 0.0764655
196.0, 0.072105
198.0, 0.0780823
200.0, 0.0448872
202.0, 0.041586
204.0, 0.0358321
206.0, 0.0293486
208.0, 0.0309762
210.0, 0.0372859
212.0, 0.0520512
214.0, 0.0127145
216.0, 0.0195505
218.0, 0.0278876
220.0, 0.00594715
222.0, 0.000972009
224.0, 0.000914928
226.0, 0.0264973
228.0, 0.00767512
230.0, 0.00569739
232.0, 0.00480853
234.0, 0.00459005
236.0, 0.0378368
238.0, 0.00968756
240.0, 0.00253453
242.0, 0.00199199
244.0, 0.0138143
246.0, 0.00545836
248.0, 0.00998746
250.0, 0.0145122
252.0, 0.0151857
254.0, 0.0176198
256.0, 0.0269203
258.0, 0.0397472
260.0, 0.0128586
262.0, 0.0261454
264.0, 0.0145006
266.0, 0.0176834
268.0, 0.0229706
270.0, 0.0119715
272.0, 0.0298413
274.0, 0.0385102
276.0, 0.0375817
278.0, 0.044227
280.0, 0.0602563
282.0, 0.0825229
284.0, 0.0498531
286.0, 0.0608251
288.0, 0.0612253
290.0, 0.108744
292.0, 0.0746503
294.0, 0.0776117
296.0, 0.111192
298.0, 0.101061
300.0, 0.102655
302.0, 0.117451
304.0, 0.107054
306.0, 0.128463
308.0, 0.114342
310.0, 0.125106
312.0, 0.11219
314.0, 0.110256
316.0, 0.103347
318.0, 0.112438
320.0, 0.0965637
322.0, 0.0517041
324.0, 0.0679017
326.0, 0.101988
328.0, 0.0671449
330.0, 0.0564578
332.0, 0.0482708
334.0, 0.0350605
336.0, 0.0262872
338.0, 0.0361959
340.0, 0.0291945
342.0, 0.0421585
344.0, 0.0284022
346.0, 0.0220121
348.0, 0.00952619
350.0, 0.01643
352.0, 0.0263294
354.0, 0.0300923
356.0, 0.00860505
358.0, 0.00222656
360.0, 0.00350408
362.0, 0.012411
364.0, 0.00704838
366.0, 0.00962099
368.0, 0.0241813
370.0, 0.00147747
372.0, 0.0318962
374.0, 0.0198138
376.0, 0.0332783
378.0, 0.0353893
380.0, 0.0363129
382.0, 0.0328724
384.0, 0.0530878
386.0, 0.0833292
388.0, 0.0776275
390.0, 0.0860084
392.0, 0.0801119
394.0, 0.100257
396.0, 0.151575
398.0, 0.154538
400.0, 0.196579
402.0, 0.174493
404.0, 0.162881
406.0, 0.156756
408.0, 0.113209
410.0, 0.0664154
412.0, 0.0557189
414.0, 0.0450835
416.0, 0.0412996
418.0, 0.0378765
420.0, 0.0385768
422.0, 0.0352356
424.0, 0.0313821
426.0, 0.00745711
428.0, 0.0193185
430.0, 0.00251131
432.0, 0.013022
434.0, 0.0115009
436.0, 0.0159535
438.0, 0.00207056
440.0, 0.00852697
442.0, 0.00648733
444.0, 0.0196821
446.0, 0.0346656
448.0, 0.0270292
450.0, 0.0223144
452.0, 0.0150097
454.0, 0.00780947
456.0, 0.0236481
458.0, 0.0210039
460.0, 0.0122633
462.0, 0.024578
464.0, 0.0344572
466.0, 0.0348444
468.0, 0.00504665
470.0, 0.0127365
472.0, 0.0163111
474.0, 0.0246914
476.0, 0.0101049
478.0, 0.0209138
480.0, 0.0111407
482.0, 0.0120135
484.0, 0.0130359
486.0, 0.0143708
488.0, 0.024512
490.0, 0.0357483
492.0, 0.0115512
494.0, 0.0263178
496.0, 0.0274405
498.0, 0.040367
500.0, 0.0264428
502.0, 0.0400898
504.0, 0.0521395
506.0, 0.0251319
508.0, 0.0341037
510.0, 0.0468627
512.0, 0.0566233
514.0, 0.0646953
516.0, 0.0649868
518.0, 0.0749843
520.0, 0.0971976
522.0, 0.113715
524.0, 0.148771
526.0, 0.10886
528.0, 0.188537
530.0, 0.193739
532.0, 0.186272
534.0, 0.222873
536.0, 0.233786
538.0, 0.244425
540.0, 0.237336
542.0, 0.279863
544.0, 0.275585
546.0, 0.245924
548.0, 0.22995
550.0, 0.198142
552.0, 0.217566
554.0, 0.180225
556.0, 0.144272
558.0, 0.165399
560.0, 0.127842
562.0, 0.103165
564.0, 0.0857648
566.0, 0.0743333
568.0, 0.0719991
570.0, 0.0563752
572.0, 0.0400508
574.0, 0.0393735
576.0, 0.0383561
578.0, 0.0357532
580.0, 0.000663775
582.0, 0.0261179
584.0, 0.00952693
586.0, 0.0133322
588.0, 0.00705992
590.0, 0.0170964
592.0, 0.00887377
594.0, 0.00487907
596.0, 0.00422116
598.0, 0.0269113
600.0, 0.0132192
602.0, 0.00677188
604.0, 0.0223541
606.0, 0.0228905
608.0, 0.0196588
610.0, 0.0163556
612.0, 0.00649253
614.0, 0.0495441
616.0, 0.0436251
618.0, 0.0692315
620.0, 0.057314
622.0, 0.0577012
624.0, 0.051465
626.0, 0.0703169
628.0, 0.0807154
630.0, 0.113464
632.0, 0.100579
634.0, 0.155214
636.0, 0.158793
638.0, 0.179448
640.0, 0.233657
642.0, 0.299013
644.0, 0.284145
646.0, 0.375382
648.0, 0.393122
650.0, 0.428659
652.0, 0.504974
654.0, 0.592511
656.0, 0.676596
658.0, 0.717353
660.0, 0.788496
662.0, 0.863065
664.0, 0.915496
666.0, 0.949399
668.0, 0.99913
670.0, 0.976129
672.0, 0.946683
674.0, 0.925484
676.0, 0.858317
678.0, 0.807852
680.0, 0.702188
682.0, 0.625819
684.0, 0.59369
686.0, 0.551429
688.0, 0.475528
690.0, 0.415025
692.0, 0.373214
694.0, 0.303627
696.0, 0.287015
698.0, 0.26497
700.0, 0.2092
702.0, 0.17342
704.0, 0.152972
706.0, 0.144922
708.0, 0.105493
710.0, 0.105977
712.0, 0.0625197
714.0, 0.0547347
716.0, 0.0267902
718.0, 0.0514469
720.0, 0.0142221
722.0, 0.0246422
724.0, 0.0103368
726.0, 0.00566806
728.0, 0.00378543
730.0, 0.00627142
732.0, 0.00480028
734.0, 0.0133967
736.0, 0.00677556
738.0, 0.0044869
740.0, 0.0130077
742.0, 0.00237462
744.0, 0.0107768
746.0, 0.0144391
748.0, 0.011751
750.0, 0.0268509
752.0, 0.0407909
754.0, 0.0121286
756.0, 0.0456682
758.0, 0.0470867
760.0, 0.0459107
762.0, 0.0281853
764.0, 0.00372763
766.0, 0.0279107
768.0, 0.0391729
770.0, 0.0339716
772.0, 0.0116782
774.0, 0.00933336
776.0, 0.0219585
778.0, 0.0055806
780.0, 0.01783
782.0, 0.00716626
784.0, 0.0211325
786.0, 0.0309943
788.0, 0.00714816
790.0, 0.0254885
792.0, 0.0136585
794.0, 0.0137671
796.0, 0.0196629
798.0, 0.0351546
800.0, 0.0105076
802.0, 0.00377309
804.0, 0.0349993
806.0, 0.00246707
808.0, 0.00866797
810.0, 0.0277555
812.0, 0.00875397
814.0, 0.0313216
816.0, 0.0140913
818.0, 0.0110476
820.0, 0.0369011
822.0, 0.0146871
824.0, 0.0208399
826.0, 0.0333481
828.0, 0.0233118
830.0, 0.0265871
832.0, 0.00165689
834.0, 0.03997
836.0, 0.0205069
838.0, 0.0423194
840.0, 0.0364297
842.0, 0.0123422
844.0, 0.0193217
846.0, 0.039963
848.0, 0.0319706
850.0, 0.0493673
852.0, 0.00923465
854.0, 0.0187064
856.0, 0.024675
858.0, 0.0362955
860.0, 0.0361153
862.0, 0.0273072
864.0, 0.0063926
866.0, 0.034388
868.0, 0.0478915
870.0, 0.0306663
872.0, 0.0225406
874.0, 0.0381521
876.0, 0.0129258
878.0, 0.028429
880.0, 0.0261617
882.0, 0.0522676
884.0, 0.0342972
886.0, 0.0462428
888.0, 0.0168997
890.0, 0.00672157
892.0, 0.0107646
894.0, 0.0279082
896.0, 0.00460048
898.0, 0.00654308
900.0, 0.0191183
902.0, 0.00924613
904.0, 0.0295164
906.0, 0.021909
908.0, 0.0373989
910.0, 0.0261541
912.0, 0.0454509
914.0, 0.0272467
916.0, 0.0375678
918.0, 0.0271328
920.0, 0.0314114
922.0, 0.063741
924.0, 0.0165071
926.0, 0.0373147
928.0, 0.0313945
930.0, 0.0227677
932.0, 0.0196076
934.0, 0.0267035
936.0, 0.0211977
938.0, 0.00643432
940.0, 0.0266263
942.0, 0.0198778
944.0, 0.0291894
946.0, 0.0339327
948.0, 0.0147706
950.0, 0.0431789
952.0, 0.0290811
954.0, 0.00575484
956.0, 0.0170733
958.0, 0.0318195
960.0, 0.0179357
962.0, 0.0199805
964.0, 0.0268418
966.0, 0.0261483
968.0, 0.0248487
970.0, 0.0167468
972.0, 0.0422995
974.0, 0.0285092
976.0, 0.0140043
978.0, 0.0428862
980.0, 0.0222003
982.0, 0.0055487
984.0, 0.0432808
986.0, 0.0190632
988.0, 0.0159024
990.0, 0.0209296
992.0, 0.0565377
994.0, 0.0404807
996.0, 0.0249666
998.0, 0.0130733
1000.0, 0.033705
1002.0, 0.031517
1004.0, 0.0168186
1006.0, 0.0486872
1008.0, 0.00756915
1010.0, 0.02716
1012.0, 0.036024
1014.0, 0.0372041
1016.0, 0.0179409
1018.0, 0.00432838
1020.0, 0.0381936
1022.0, 0.0214666
1024.0, 0.017317
1026.0, 0.00418583
1028.0, 0.043384
1030.0, 0.036699
1032.0, 0.03619
1034.0, 0.0313169
1036.0, 0.000555645
1038.0, 0.0376613
1040.0, 0.0194502
1042.0, 0.0200959
1044.0, 0.0433849
1046.0, 0.0345394
1048.0, 0.0339427
1050.0, 0.0063033
1052.0, 0.0320638
1054.0, 0.0298086
1056.0, 0.0143143
1058.0, 0.024875
1060.0, 0.025749
1062.0, 0.0115974
1064.0, 0.0137418
1066.0, 0.0270931
1068.0, 0.0309914
1070.0, 0.02316
1072.0, 0.00900338
1074.0, 0.0162523
1076.0, 0.0205482
1078.0, 0.0355226
1080.0, 0.0144746
1082.0, 0.0201864
1084.0, 0.0120075
1086.0, 0.026026
1088.0, 0.00167299
1090.0, 0.0524136
1092.0, 0.0416931
1094.0, 0.00638447
1096.0, 0.0353273
1098.0, 0.0185489
1100.0, 0.00193384
1102.0, 0.0329256
1104.0, 0.0169193
1106.0, 0.0103123
1108.0, 0.0137115
1110.0, 0.026267
1112.0, 0.0318661
1114.0, 0.00499031
1116.0, 0.0271493
1118.0, 0.01211
1120.0, 0.033716
1122.0, 0.0167704
1124.0, 0.020057
1126.0, 0.0334359
1128.0, 0.00582903
1130.0, 0.020467
1132.0, 0.0218838
1134.0, 0.0107027
1136.0, 0.0285813
1138.0, 0.0287722
1140.0, 0.0185916
1142.0, 0.0285034
1144.0, 0.0127565
1146.0, 0.043383
1148.0, 0.0211919
1150.0, 0.0143427
1152.0, 0.0264108
1154.0, 0.00837524
1156.0, 0.0378405
1158.0, 0.0365468
1160.0, 0.00664375
1162.0, 0.0117796
1164.0, 0.00575589
1166.0, 0.01548
1168.0, 0.0111
1170.0, 0.00682125
1172.0, 0.032616
1174.0, 0.0190206
1176.0, 0.0205002
1178.0, 0.00404671
1180.0, 0.0134635
1182.0, 0.0163616
1184.0, 0.0199333
1186.0, 0.0254497
1188.0, 0.0314606
1190.0, 0.0134995
1192.0, 0.0282104
1194.0, 0.0393605
1196.0, 0.0351213
1198.0, 0.0271511
1200.0, 0.0316725
1202.0, 0.0238688
1204.0, 0.0390168
1206.0, 0.0175799
1208.0, 0.00697414
1210.0, 0.0519104
1212.0, 0.0278328
1214.0, 0.0179062
1216.0, 0.0262351
1218.0, 0.036043
1220.0, 0.0230677
1222.0, 0.0401715
1224.0, 0.0375409
1226.0, 0.0236593
1228.0, 0.01771
1230.0, 0.00778239
1232.0, 0.0115245
1234.0, 0.0289603
1236.0, 0.0281874
1238.0, 0.0423072
1240.0, 0.0149602
1242.0, 0.0255038
1244.0, 0.0163392
1246.0, 0.0308122
1248.0, 0.0191797
1250.0, 0.0254383
1252.0, 0.021092
1254.0, 0.0205558
1256.0, 0.017732
1258.0, 0.0211402
1260.0, 0.0218146
1262.0, 0.0304893
1264.0, 0.0143736
1266.0, 0.0327553
1268.0, 0.0278119
1270.0, 0.0158832
1272.0, 0.0201746
1274.0, 0.0141902
1276, 0.0
1278, 0.0
1280, 0.0
1282, 0.0
1284, 0.0
1286, 0.0
1288, 0.0
1290, 0.0
1292, 0.0
1294, 0.0
1296, 0.0
1298, 0.0
1300, 0.0
1302, 0.0
1304, 0.0
1306, 0.0
1308, 0.0
1310, 0.0
1312, 0.0
1314, 0.0
1316, 0.0
1318, 0.0
1320, 0.0
1322, 0.0
1324, 0.0
1326, 0.0
1328, 0.0
1330, 0.0
1332, 0.0
1334, 0.0
1336, 0.0
1338, 0.0
1340, 0.0
1342, 0.0
1344, 0.0
1346, 0.0
1348, 0.0
1350, 0.0
1352, 0.0
1354, 0.0
1356, 0.0
1358, 0.0
1360, 0.0
1362, 0.0
1364, 0.0
1366, 0.0
1368, 0.0
1370, 0.0
1372, 0.0
1374, 0.0
1376, 0.0
1378, 0.0
1380, 0.0
1382, 0.0
1384, 0.0
1386, 0.0
1388, 0.0
1390, 0.0
1392, 0.0
1394, 0.0
1396, 0.0
1398, 0.0
1400, 0.0
1402, 0.0
1404, 0.0
1406, 0.0
1408, 0.0
1410, 0.0
1412, 0.0
1414, 0.0
1416, 0.0
1418, 0.0
1420, 0.0
1422, 0.0
1424, 0.0
1426, 0.0
1428, 0.0
1430, 0.0
1432, 0.0
1434, 0.0
1436, 0.0
1438, 0.0
1440, 0.0
1442, 0.0
1444, 0.0
1446, 0.0
1448, 0.0
1450, 0.0
1452, 0.0
1454, 0.0
1456, 0.0
1458, 0.0
1460, 0.0
1462, 0.0
1464, 0.0
1466, 0.0
1468, 0.0
1470, 0.0
1472, 0.0
1474, 0.0
1476, 0.0
1478, 0.0
1480, 0.0
1482, 0.0
1484, 0.0
1486, 0.0
1488, 0.0
1490, 0.0
1492, 0.0
1494, 0.0
1496, 0.0
1498, 0.0
1500, 0.0
1502, 0.0
1504, 0.0
1506, 0.0
1508, 0.0
1510, 0.0
1512, 0.0
1514, 0.0
1516, 0.0
1518, 0.0
1520, 0.0
1522, 0.0
1524, 0.0
1526, 0.0
1528, 0.0
1530, 0.0
1532, 0.0
1534, 0.0
1536, 0.0
1538, 0.0
1540, 0.0
1542, 0.0
1544, 0.0
1546, 0.0
1548, 0.0
1550, 0.0
1552, 0.0
1554, 0.0
1556, 0.0
1558, 0.0
1560, 0.0
1562, 0.0
1564, 0.0
1566, 0.0
1568, 0.0
1570, 0.0
1572, 0.0
1574, 0.0
1576, 0.0
1578, 0.0
1580, 0.0
1582, 0.0
1584, 0.0
1586, 0.0
1588, 0.0
1590, 0.0
1592, 0.0
1594, 0.0
1596, 0.0
1598, 0.0
1599, 0.0