File: raw data/Dataset_2/Ferrohogbomite2N2S/Ferrohogbomite2N2S__R061017__Raman__785__0__unoriented__Raman_Data_Processed__19322.txt
30, 0.0
32, 0.0
34, 0.0
36, 0.0
38, 0.0
40, 0.0
42, 0.0
44, 0.0
46, 0.0
48, 0.0
50, 0.0
52, 0.0
54, 0.0
56, 0.0
58, 0.0
60, 0.0
62, 0.0
64, 0.0
66, 0.0
68, 0.0
70, 0.0
72, 0.0
74, 0.0
76, 0.0
78, 0.0
80, 0.0
82, 0.0
84, 0.0
86, 0.0
88, 0.0
90, 0.0
92, 0.0
94, 0.0
96, 0.0
98, 0.0
100, 0.0
102, 0.0
104, 0.0
106, 0.0
108, 0.0
110, 0.0
112, 0.0
114, 0.0
116, 0.0
118, 0.0
120, 0.0
122, 0.0
124, 0.0
126, 0.0
128, 0.0
130, 0.0
132, 0.0
134, 0.0
136, 0.0
138, 0.0
140, 0.0
142, 0.0
144, 0.0
146, 0.0
148, 0.0
150, 0.0
152, 0.0
154, 0.0
156, 0.0
158, 0.0
160, 0.0
162, 0.0
164, 0.0
166, 0.0
168, 0.0
170, 0.0
172, 0.0
174, 0.0
176.0, 0.00548452
178.0, 0.0131403
180.0, 0.00079593
182.0, 0.00765075
184.0, 0.0117214
186.0, 0.0155381
188.0, 0.0251438
190.0, 0.0395455
192.0, 0.0469996
194.0, 0.0503931
196.0, 0.0543018
198.0, 0.048621
200.0, 0.0371512
202.0, 0.0399323
204.0, 0.0359688
206.0, 0.00522234
208.0, 0.00337185
210.0, 0.00889373
212.0, 0.00372892
214.0, 0.0205404
216.0, 0.00044786
218.0, 0.00151277
220.0, 0.0154026
222.0, 0.00109865
224.0, 0.00246037
226.0, 0.00956513
228.0, 0.000877849
230.0, 0.00617955
232.0, 0.00951592
234.0, 0.00601982
236.0, 0.0110159
238.0, 0.0161136
240.0, 0.0213129
242.0, 0.0265135
244.0, 0.0139137
246.0, 0.0142624
248.0, 0.0234265
250.0, 0.0147798
252.0, 0.0297428
254.0, 0.0264229
256.0, 0.048148
258.0, 0.0404931
260.0, 0.0409586
262.0, 0.0495528
264.0, 0.0460673
266.0, 0.0524433
268.0, 0.0394952
270.0, 0.0630088
272.0, 0.046464
274.0, 0.05072
276.0, 0.0479192
278.0, 0.065571
280.0, 0.067703
282.0, 0.0511255
284.0, 0.078191
286.0, 0.0774261
288.0, 0.0686842
290.0, 0.0836203
292.0, 0.096929
294.0, 0.105642
296.0, 0.113906
298.0, 0.115374
300.0, 0.131306
302.0, 0.137442
304.0, 0.130174
306.0, 0.139093
308.0, 0.139466
310.0, 0.136967
312.0, 0.119805
314.0, 0.125914
316.0, 0.106531
318.0, 0.0928555
320.0, 0.0885194
322.0, 0.0698965
324.0, 0.0605026
326.0, 0.0731779
328.0, 0.0535708
330.0, 0.0588875
332.0, 0.0562103
334.0, 0.0477327
336.0, 0.0265728
338.0, 0.0287241
340.0, 0.0320391
342.0, 0.0203517
344.0, 0.00984766
346.0, 0.0105925
348.0, 0.0208018
350.0, 0.00854453
352.0, 0.0118701
354.0, 0.00727927
356.0, 0.00311127
358.0, 0.0137566
360.0, 0.010186
362.0, 0.00122364
364.0, 0.0116069
366.0, 0.00504982
368.0, 0.000604025
370.0, 0.00446338
372.0, 0.00319893
374.0, 0.00473533
376.0, 0.00115571
378.0, 0.00451037
380.0, 0.00335661
382.0, 0.0121027
384.0, 0.00422101
386.0, 0.013711
388.0, 0.00808022
390.0, 0.0108748
392.0, 0.0160823
394.0, 0.025045
396.0, 0.0367176
398.0, 0.0506159
400.0, 0.0638334
402.0, 0.0635733
404.0, 0.0662179
406.0, 0.0427141
408.0, 0.0338097
410.0, 0.026842
412.0, 0.0119099
414.0, 0.0137936
416.0, 0.0244335
418.0, 0.0153099
420.0, 0.0172851
422.0, 0.014834
424.0, 0.00589307
426.0, 0.00075868
428.0, 0.00792947
430.0, 0.00223693
432.0, 0.000368113
434.0, 0.00373457
436.0, 0.0116235
438.0, 0.0160252
440.0, 0.0199329
442.0, 0.0200457
444.0, 0.00812688
446.0, 0.0131509
448.0, 0.00178676
450.0, 0.00218865
452.0, 0.0122087
454.0, 0.00865721
456.0, 0.0123717
458.0, 0.00876185
460.0, 0.00269225
462.0, 0.00938875
464.0, 0.00943564
466.0, 0.0126375
468.0, 0.0218496
470.0, 0.0261159
472.0, 0.000335617
474.0, 0.0143236
476.0, 0.0103797
478.0, 0.0090829
480.0, 0.0183826
482.0, 0.0210575
484.0, 0.018035
486.0, 0.0120202
488.0, 0.029591
490.0, 0.0178795
492.0, 0.0218534
494.0, 0.0186813
496.0, 0.0371552
498.0, 0.0220218
500.0, 0.0274147
502.0, 0.0150493
504.0, 0.0173791
506.0, 0.0337615
508.0, 0.023304
510.0, 0.0270881
512.0, 0.0230925
514.0, 0.0450396
516.0, 0.034427
518.0, 0.0273121
520.0, 0.0392292
522.0, 0.0456402
524.0, 0.056098
526.0, 0.0559177
528.0, 0.071464
530.0, 0.0635065
532.0, 0.0503613
534.0, 0.0488468
536.0, 0.061209
538.0, 0.0794401
540.0, 0.0564571
542.0, 0.0558448
544.0, 0.0645001
546.0, 0.0555331
548.0, 0.0482498
550.0, 0.0544527
552.0, 0.0506614
554.0, 0.0256531
556.0, 0.0315832
558.0, 0.020801
560.0, 0.0281423
562.0, 0.0121014
564.0, 0.0123726
566.0, 0.00221464
568.0, 0.0148123
570.0, 0.00337159
572.0, 0.00226412
574.0, 0.000556894
576.0, 0.00383792
578.0, 0.00343671
580.0, 0.0102267
582.0, 0.0095748
584.0, 0.00813993
586.0, 0.003108
588.0, 0.000594894
590.0, 0.00599985
592.0, 0.00151422
594.0, 0.00433669
596.0, 0.000943934
598.0, 0.00376014
600.0, 0.00237871
602.0, 0.0133967
604.0, 0.00706326
606.0, 0.00639193
608.0, 0.0212936
610.0, 0.0172178
612.0, 0.0416984
614.0, 0.0269894
616.0, 0.0486368
618.0, 0.0470115
620.0, 0.0577226
622.0, 0.0666264
624.0, 0.0665432
626.0, 0.0708748
628.0, 0.0872595
630.0, 0.0994947
632.0, 0.115107
634.0, 0.131873
636.0, 0.143423
638.0, 0.168553
640.0, 0.198816
642.0, 0.224244
644.0, 0.241585
646.0, 0.293423
648.0, 0.339941
650.0, 0.396249
652.0, 0.471415
654.0, 0.540917
656.0, 0.620778
658.0, 0.684148
660.0, 0.771631
662.0, 0.849952
664.0, 0.905673
666.0, 0.960146
668.0, 0.999818
670.0, 0.99595
672.0, 0.974187
674.0, 0.944963
676.0, 0.89481
678.0, 0.843646
680.0, 0.773269
682.0, 0.705804
684.0, 0.640585
686.0, 0.574928
688.0, 0.520022
690.0, 0.469832
692.0, 0.423676
694.0, 0.367238
696.0, 0.337271
698.0, 0.304938
700.0, 0.255456
702.0, 0.235116
704.0, 0.182692
706.0, 0.155736
708.0, 0.139534
710.0, 0.128871
712.0, 0.111186
714.0, 0.0874179
716.0, 0.0820743
718.0, 0.0616272
720.0, 0.0497073
722.0, 0.0569021
724.0, 0.039945
726.0, 0.0150272
728.0, 0.0257987
730.0, 0.0135335
732.0, 0.00796491
734.0, 0.00310668
736.0, 0.00671315
738.0, 0.00772945
740.0, 0.00471102
742.0, 0.00301934
744.0, 0.00447029
746.0, 0.00696637
748.0, 0.0221673
750.0, 0.00257845
752.0, 0.00804165
754.0, 0.00439617
756.0, 0.00938327
758.0, 0.0153873
760.0, 0.00649801
762.0, 0.00671502
764.0, 0.0140888
766.0, 0.00821345
768.0, 0.019444
770.0, 0.00779137
772.0, 0.00204736
774.0, 0.00175405
776.0, 0.00389232
778.0, 0.0053127
780.0, 0.00661728
782.0, 0.00936487
784.0, 0.00742593
786.0, 0.00568745
788.0, 0.00971765
790.0, 0.00625101
792.0, 0.00988097
794.0, 0.0133118
796.0, 0.0201061
798.0, 0.009269
800.0, 0.0160664
802.0, 0.0225839
804.0, 0.0123943
806.0, 0.0243646
808.0, 0.0193911
810.0, 0.0211398
812.0, 0.0063489
814.0, 0.007744
816.0, 0.00909515
818.0, 0.0180439
820.0, 0.0177426
822.0, 0.0245935
824.0, 0.015714
826.0, 0.0101427
828.0, 0.0129647
830.0, 0.0115437
832.0, 0.0233185
834.0, 0.0105498
836.0, 0.000372522
838.0, 0.014423
840.0, 0.0093267
842.0, 0.00692273
844.0, 0.00813656
846.0, 0.0142109
848.0, 0.00615843
850.0, 0.0166576
852.0, 0.0098232
854.0, 0.00775244
856.0, 0.0122458
858.0, 0.0165267
860.0, 0.0150488
862.0, 0.00855106
864.0, 0.0189155
866.0, 0.00810988
868.0, 0.0179855
870.0, 0.00546912
872.0, 0.0156579
874.0, 0.0125171
876.0, 0.00511861
878.0, 0.0303812
880.0, 0.00816906
882.0, 0.00489327
884.0, 0.00685939
886.0, 0.0134237
888.0, 0.00565444
890.0, 0.00563239
892.0, 0.0170939
894.0, 0.0170653
896.0, 0.0249347
898.0, 0.0102621
900.0, 0.00686469
902.0, 0.0145012
904.0, 0.017697
906.0, 0.0288463
908.0, 0.0261263
910.0, 0.00656141
912.0, 0.0227003
914.0, 0.00257539
916.0, 0.00417546
918.0, 0.0207721
920.0, 0.0197535
922.0, 0.00508219
924.0, 0.0194849
926.0, 0.0204422
928.0, 0.00584891
930.0, 0.0208331
932.0, 0.0197928
934.0, 0.0229743
936.0, 0.0325873
938.0, 0.0233717
940.0, 0.0177177
942.0, 0.0289618
944.0, 0.00820166
946.0, 0.0276967
948.0, 0.0268471
950.0, 0.0225248
952.0, 0.0287831
954.0, 0.0350623
956.0, 0.0261335
958.0, 0.0380976
960.0, 0.0287788
962.0, 0.00917745
964.0, 0.014287
966.0, 0.0315259
968.0, 0.0165627
970.0, 0.0262476
972.0, 0.0230066
974.0, 0.0100986
976.0, 0.0240616
978.0, 0.0311812
980.0, 0.0225225
982.0, 0.0204539
984.0, 0.0232738
986.0, 0.0252868
988.0, 0.0015212
990.0, 0.0159111
992.0, 0.012113
994.0, 0.00181314
996.0, 0.0186446
998.0, 0.0246562
1000.0, 0.0304424
1002.0, 0.0146505
1004.0, 0.0198906
1006.0, 0.0224778
1008.0, 0.0225397
1010.0, 0.0166596
1012.0, 0.0263793
1014.0, 0.0313466
1016.0, 0.0257572
1018.0, 0.0132834
1020.0, 0.0135221
1022.0, 0.0108227
1024.0, 0.00116606
1026.0, 0.0192224
1028.0, 0.0124354
1030.0, 0.0235449
1032.0, 0.00799613
1034.0, 0.0188286
1036.0, 0.0334949
1038.0, 0.0230212
1040.0, 0.0285669
1042.0, 0.0271832
1044.0, 0.0206135
1046.0, 0.0275711
1048.0, 0.0284769
1050.0, 0.0230058
1052.0, 0.0212142
1054.0, 0.0192174
1056.0, 0.0122059
1058.0, 0.00559351
1060.0, 0.00908044
1062.0, 0.0127634
1064.0, 0.0114499
1066.0, 0.0066561
1068.0, 0.0177821
1070.0, 0.020011
1072.0, 0.00214607
1074.0, 0.00625142
1076.0, 0.00773312
1078.0, 0.0185758
1080.0, 0.0252248
1082.0, 0.0102706
1084.0, 0.0140165
1086.0, 0.00588496
1088.0, 0.0171781
1090.0, 0.0166249
1092.0, 0.0176046
1094.0, 0.0196144
1096.0, 0.0125596
1098.0, 0.0265161
1100.0, 0.020916
1102.0, 0.00500788
1104.0, 0.0216006
1106.0, 0.00895948
1108.0, 0.00928826
1110.0, 0.0300278
1112.0, 0.010664
1114.0, 0.019094
1116.0, 0.0158662
1118.0, 0.0150456
1120.0, 0.0131736
1122.0, 0.00639006
1124.0, 0.0153359
1126.0, 0.0321673
1128.0, 0.0228587
1130.0, 0.0193623
1132.0, 0.0124394
1134.0, 0.0122941
1136.0, 0.0193411
1138.0, 0.00203999
1140.0, 0.00505566
1142.0, 0.00678349
1144.0, 0.0125469
1146.0, 0.0213116
1148.0, 0.00204877
1150.0, 0.0153055
1152.0, 0.00493027
1154.0, 0.00906504
1156.0, 0.00592757
1158.0, 0.0143555
1160.0, 0.0263936
1162.0, 0.019439
1164.0, 0.00933458
1166.0, 0.0248581
1168.0, 0.00963878
1170.0, 0.031596
1172.0, 0.0133063
1174.0, 0.00549124
1176.0, 0.0168756
1178.0, 0.0157496
1180.0, 0.0122967
1182.0, 0.0122259
1184.0, 0.0164945
1186.0, 0.00791595
1188.0, 0.00867085
1190.0, 0.00875067
1192.0, 0.0126321
1194.0, 0.01437
1196.0, 0.0109233
1198.0, 0.0054234
1200.0, 0.00600916
1202.0, 0.00930729
1204.0, 0.00406941
1206.0, 0.00663144
1208.0, 0.0222861
1210.0, 0.0153234
1212.0, 0.00962433
1214.0, 0.0339126
1216.0, 0.0201204
1218.0, 0.0163036
1220.0, 0.0316789
1222.0, 0.0119977
1224.0, 0.0281341
1226.0, 0.0174303
1228.0, 0.0143023
1230.0, 0.0147878
1232.0, 0.0272973
1234.0, 0.0295086
1236.0, 0.0220296
1238.0, 0.0218237
1240.0, 0.0209294
1242.0, 0.0352663
1244.0, 0.0248843
1246.0, 0.0304384
1248.0, 0.0354355
1250.0, 0.0248072
1252.0, 0.0353253
1254.0, 0.023213
1256.0, 0.0266004
1258.0, 0.00904963
1260.0, 0.0150459
1262.0, 0.0200338
1264.0, 0.00324606
1266.0, 0.0372305
1268.0, 0.0304784
1270.0, 0.000749384
1272, 0.0
1274, 0.0
1276, 0.0
1278, 0.0
1280, 0.0
1282, 0.0
1284, 0.0
1286, 0.0
1288, 0.0
1290, 0.0
1292, 0.0
1294, 0.0
1296, 0.0
1298, 0.0
1300, 0.0
1302, 0.0
1304, 0.0
1306, 0.0
1308, 0.0
1310, 0.0
1312, 0.0
1314, 0.0
1316, 0.0
1318, 0.0
1320, 0.0
1322, 0.0
1324, 0.0
1326, 0.0
1328, 0.0
1330, 0.0
1332, 0.0
1334, 0.0
1336, 0.0
1338, 0.0
1340, 0.0
1342, 0.0
1344, 0.0
1346, 0.0
1348, 0.0
1350, 0.0
1352, 0.0
1354, 0.0
1356, 0.0
1358, 0.0
1360, 0.0
1362, 0.0
1364, 0.0
1366, 0.0
1368, 0.0
1370, 0.0
1372, 0.0
1374, 0.0
1376, 0.0
1378, 0.0
1380, 0.0
1382, 0.0
1384, 0.0
1386, 0.0
1388, 0.0
1390, 0.0
1392, 0.0
1394, 0.0
1396, 0.0
1398, 0.0
1400, 0.0
1402, 0.0
1404, 0.0
1406, 0.0
1408, 0.0
1410, 0.0
1412, 0.0
1414, 0.0
1416, 0.0
1418, 0.0
1420, 0.0
1422, 0.0
1424, 0.0
1426, 0.0
1428, 0.0
1430, 0.0
1432, 0.0
1434, 0.0
1436, 0.0
1438, 0.0
1440, 0.0
1442, 0.0
1444, 0.0
1446, 0.0
1448, 0.0
1450, 0.0
1452, 0.0
1454, 0.0
1456, 0.0
1458, 0.0
1460, 0.0
1462, 0.0
1464, 0.0
1466, 0.0
1468, 0.0
1470, 0.0
1472, 0.0
1474, 0.0
1476, 0.0
1478, 0.0
1480, 0.0
1482, 0.0
1484, 0.0
1486, 0.0
1488, 0.0
1490, 0.0
1492, 0.0
1494, 0.0
1496, 0.0
1498, 0.0
1500, 0.0
1502, 0.0
1504, 0.0
1506, 0.0
1508, 0.0
1510, 0.0
1512, 0.0
1514, 0.0
1516, 0.0
1518, 0.0
1520, 0.0
1522, 0.0
1524, 0.0
1526, 0.0
1528, 0.0
1530, 0.0
1532, 0.0
1534, 0.0
1536, 0.0
1538, 0.0
1540, 0.0
1542, 0.0
1544, 0.0
1546, 0.0
1548, 0.0
1550, 0.0
1552, 0.0
1554, 0.0
1556, 0.0
1558, 0.0
1560, 0.0
1562, 0.0
1564, 0.0
1566, 0.0
1568, 0.0
1570, 0.0
1572, 0.0
1574, 0.0
1576, 0.0
1578, 0.0
1580, 0.0
1582, 0.0
1584, 0.0
1586, 0.0
1588, 0.0
1590, 0.0
1592, 0.0
1594, 0.0
1596, 0.0
1598, 0.0
1599, 0.0