File: raw data/Dataset_2/Ferrohogbomite2N2S/Ferrohogbomite2N2S__R061017__Raman__532__0__unoriented__Raman_Data_Processed__14756.txt
30, 0.0
32, 0.0
34, 0.0
36, 0.0
38, 0.0
40, 0.0
42, 0.0
44, 0.0
46, 0.0
48, 0.0
50, 0.0
52, 0.0
54, 0.0
56, 0.0
58, 0.0
60, 0.0
62, 0.0
64, 0.0
66, 0.0
68, 0.0
70, 0.0
72, 0.0
74, 0.0
76, 0.0
78, 0.0
80, 0.0
82, 0.0
84, 0.0
86, 0.0
88, 0.0
90, 0.0
92, 0.0
94, 0.0
96, 0.0
98, 0.0
100, 0.0
102, 0.0
104, 0.0
106, 0.0
108, 0.0
110, 0.0
112, 0.0
114, 0.0
116, 0.0
118, 0.0
120, 0.0
122, 0.0
124, 0.0
126, 0.0
128, 0.0
130, 0.0
132, 0.0
134, 0.0
136, 0.0
138, 0.0
140, 0.0
142, 0.0
144, 0.0
146, 0.0
148, 0.0
150, 0.0
152, 0.0
154, 0.0
156, 0.0
158, 0.0
160, 0.0
162.0, 0.0379422
164.0, 0.0237313
166.0, 0.00122711
168.0, 0.00116787
170.0, 0.0454001
172.0, 0.0259994
174.0, 0.0196278
176.0, 0.00683917
178.0, 0.0144019
180.0, 0.0109042
182.0, 0.0287971
184.0, 0.0311648
186.0, 0.04438
188.0, 0.0253757
190.0, 0.0530812
192.0, 0.0318565
194.0, 0.041863
196.0, 0.0500093
198.0, 0.044156
200.0, 0.0348616
202.0, 0.0323036
204.0, 0.060434
206.0, 0.0234902
208.0, 0.0110777
210.0, 0.0217204
212.0, 0.00220818
214.0, 0.00770493
216.0, 0.00250362
218.0, 0.00811029
220.0, 0.0116044
222.0, 0.00309572
224.0, 0.00158761
226.0, 0.00582684
228.0, 0.00741252
230.0, 0.00660821
232.0, 0.0163256
234.0, 0.00550351
236.0, 0.012118
238.0, 0.0183442
240.0, 0.0046671
242.0, 0.00910276
244.0, 0.00814873
246.0, 0.0128147
248.0, 0.00539685
250.0, 0.0079454
252.0, 0.00970534
254.0, 0.00793628
256.0, 0.014939
258.0, 0.00220369
260.0, 0.0272753
262.0, 0.0253076
264.0, 0.0162904
266.0, 0.0286755
268.0, 0.0311456
270.0, 0.0253564
272.0, 0.0397744
274.0, 0.0387029
276.0, 0.0374356
278.0, 0.046608
280.0, 0.0574081
282.0, 0.0547837
284.0, 0.0628997
286.0, 0.057078
288.0, 0.072815
290.0, 0.0734188
292.0, 0.0799201
294.0, 0.0806441
296.0, 0.0979834
298.0, 0.116134
300.0, 0.0956849
302.0, 0.11037
304.0, 0.103345
306.0, 0.10278
308.0, 0.109642
310.0, 0.102395
312.0, 0.109411
314.0, 0.0969645
316.0, 0.0998476
318.0, 0.0923229
320.0, 0.0593056
322.0, 0.0665029
324.0, 0.0485932
326.0, 0.0660075
328.0, 0.0442495
330.0, 0.0419332
332.0, 0.0341284
334.0, 0.035715
336.0, 0.016534
338.0, 0.0101269
340.0, 0.0393981
342.0, 0.0129032
344.0, 0.0125029
346.0, 0.0175353
348.0, 0.0165842
350.0, 0.00435437
352.0, 0.000573829
354.0, 0.00440832
356.0, 0.0152591
358.0, 0.00350799
360.0, 0.00198682
362.0, 0.00791632
364.0, 0.0060825
366.0, 0.00270338
368.0, 0.00356052
370.0, 0.00645994
372.0, 0.0151894
374.0, 0.00127181
376.0, 0.0158739
378.0, 0.0161481
380.0, 0.023004
382.0, 0.0205428
384.0, 0.0062852
386.0, 0.0259754
388.0, 0.0443187
390.0, 0.0696519
392.0, 0.0624317
394.0, 0.0842445
396.0, 0.0943087
398.0, 0.103582
400.0, 0.131784
402.0, 0.147495
404.0, 0.149664
406.0, 0.111738
408.0, 0.0941345
410.0, 0.0428525
412.0, 0.0471876
414.0, 0.0289418
416.0, 0.0323036
418.0, 0.018887
420.0, 0.0319179
422.0, 0.0079675
424.0, 0.0161486
426.0, 0.017329
428.0, 0.0136176
430.0, 0.0248931
432.0, 0.019579
434.0, 0.0179245
436.0, 0.0129737
438.0, 0.00135732
440.0, 0.00987753
442.0, 0.0105321
444.0, 0.00512213
446.0, 0.00817123
448.0, 0.0183302
450.0, 0.00511855
452.0, 0.00801963
454.0, 0.0097132
456.0, 0.00762125
458.0, 0.00638043
460.0, 0.00223496
462.0, 0.00564168
464.0, 0.00340797
466.0, 0.0150612
468.0, 0.00170074
470.0, 0.0199958
472.0, 0.0136636
474.0, 0.00631365
476.0, 0.00129313
478.0, 0.0123869
480.0, 0.000966667
482.0, 0.0125242
484.0, 0.0219136
486.0, 0.0195304
488.0, 0.000557468
490.0, 0.0136914
492.0, 0.0152236
494.0, 0.0217697
496.0, 0.0163442
498.0, 0.0238342
500.0, 0.00985255
502.0, 0.0246333
504.0, 0.0374503
506.0, 0.041092
508.0, 0.0581472
510.0, 0.0406479
512.0, 0.0560286
514.0, 0.0701139
516.0, 0.0994979
518.0, 0.0961262
520.0, 0.115416
522.0, 0.12371
524.0, 0.15247
526.0, 0.167909
528.0, 0.187114
530.0, 0.1952
532.0, 0.199889
534.0, 0.247686
536.0, 0.241632
538.0, 0.232295
540.0, 0.263562
542.0, 0.249082
544.0, 0.277024
546.0, 0.251239
548.0, 0.22965
550.0, 0.219323
552.0, 0.206803
554.0, 0.183369
556.0, 0.163172
558.0, 0.130369
560.0, 0.127032
562.0, 0.0943672
564.0, 0.106462
566.0, 0.0811066
568.0, 0.0613853
570.0, 0.0447615
572.0, 0.0521913
574.0, 0.0110145
576.0, 0.0109551
578.0, 0.0142532
580.0, 0.0024899
582.0, 0.00221487
584.0, 0.0128024
586.0, 0.00467057
588.0, 0.00344237
590.0, 0.00935043
592.0, 0.00746999
594.0, 0.00666917
596.0, 0.0108467
598.0, 0.00690929
600.0, 0.00314199
602.0, 0.00760473
604.0, 0.0153586
606.0, 0.0200705
608.0, 0.0217454
610.0, 0.0381657
612.0, 0.0377328
614.0, 0.0594672
616.0, 0.0667592
618.0, 0.0609626
620.0, 0.0719053
622.0, 0.0990953
624.0, 0.118685
626.0, 0.122184
628.0, 0.126022
630.0, 0.151836
632.0, 0.153651
634.0, 0.196725
636.0, 0.206756
638.0, 0.248187
640.0, 0.290028
642.0, 0.31814
644.0, 0.37131
646.0, 0.393204
648.0, 0.46258
650.0, 0.483873
652.0, 0.58845
654.0, 0.662002
656.0, 0.748391
658.0, 0.835301
660.0, 0.88152
662.0, 0.898401
664.0, 0.978247
666.0, 0.985364
668.0, 0.998185
670.0, 0.98553
672.0, 0.95023
674.0, 0.878659
676.0, 0.839992
678.0, 0.768651
680.0, 0.707431
682.0, 0.674996
684.0, 0.576822
686.0, 0.500613
688.0, 0.469872
690.0, 0.408937
692.0, 0.374131
694.0, 0.339995
696.0, 0.286732
698.0, 0.253121
700.0, 0.221577
702.0, 0.178636
704.0, 0.132657
706.0, 0.144096
708.0, 0.108258
710.0, 0.0881662
712.0, 0.0658442
714.0, 0.0692921
716.0, 0.0476047
718.0, 0.0234656
720.0, 0.0350209
722.0, 0.0233378
724.0, 0.0044275
726.0, 0.00670837
728.0, 0.00655014
730.0, 0.0103469
732.0, 0.00935817
734.0, 0.012621
736.0, 0.0015226
738.0, 0.00364254
740.0, 0.00978814
742.0, 0.00690403
744.0, 0.00609013
746.0, 0.00300094
748.0, 0.00386939
750.0, 0.0205704
752.0, 0.0168871
754.0, 0.0210399
756.0, 0.0141556
758.0, 0.0380544
760.0, 0.0255379
762.0, 0.020169
764.0, 0.0222994
766.0, 0.019301
768.0, 0.0236822
770.0, 0.0212597
772.0, 0.0211287
774.0, 0.0283838
776.0, 0.00941477
778.0, 0.00909899
780.0, 0.0138578
782.0, 0.0107574
784.0, 0.0103849
786.0, 0.0159317
788.0, 0.00448425
790.0, 0.00745079
792.0, 0.00264171
794.0, 0.0103454
796.0, 0.0224939
798.0, 0.0123001
800.0, 0.0173195
802.0, 0.0112856
804.0, 0.00737052
806.0, 0.0240301
808.0, 0.00978395
810.0, 0.00317732
812.0, 0.0268416
814.0, 0.00391798
816.0, 0.0159432
818.0, 0.0219961
820.0, 0.0287847
822.0, 0.0374167
824.0, 0.0123598
826.0, 0.0229868
828.0, 0.00856448
830.0, 0.0117219
832.0, 0.00958695
834.0, 0.0183133
836.0, 0.0262529
838.0, 0.0140067
840.0, 0.0185882
842.0, 0.0246053
844.0, 0.0295938
846.0, 0.0338978
848.0, 0.0365842
850.0, 0.0242135
852.0, 0.018889
854.0, 0.00775477
856.0, 0.0186153
858.0, 0.0228481
860.0, 0.0104938
862.0, 0.0186735
864.0, 0.019354
866.0, 0.0177873
868.0, 0.0190518
870.0, 0.00656779
872.0, 0.0120242
874.0, 0.0090183
876.0, 0.0189632
878.0, 0.0261172
880.0, 0.0303393
882.0, 0.0198954
884.0, 0.0156832
886.0, 0.00862859
888.0, 0.031989
890.0, 0.0149206
892.0, 0.0176556
894.0, 0.0267952
896.0, 0.0123754
898.0, 0.0172822
900.0, 0.0213271
902.0, 0.0113731
904.0, 0.00274036
906.0, 0.0164774
908.0, 0.00970505
910.0, 0.00843865
912.0, 0.0135428
914.0, 0.0092592
916.0, 0.0181223
918.0, 0.00516815
920.0, 0.00463933
922.0, 0.0048677
924.0, 0.0235845
926.0, 0.00444173
928.0, 0.00251755
930.0, 0.000956397
932.0, 0.0131083
934.0, 0.0158277
936.0, 0.00311398
938.0, 0.0200098
940.0, 0.0213321
942.0, 0.0118962
944.0, 0.00583807
946.0, 0.00152169
948.0, 0.0255365
950.0, 0.0142595
952.0, 0.00200682
954.0, 0.0109578
956.0, 0.0133736
958.0, 0.0111462
960.0, 0.00459596
962.0, 0.0063963
964.0, 0.0102315
966.0, 0.0210257
968.0, 0.0121886
970.0, 0.00860727
972.0, 0.0233276
974.0, 0.00903968
976.0, 0.0122526
978.0, 0.0134036
980.0, 0.0103647
982.0, 0.0150498
984.0, 0.015817
986.0, 0.00619739
988.0, 0.0178596
990.0, 0.00280192
992.0, 0.0223372
994.0, 0.0186839
996.0, 0.0110153
998.0, 0.00656697
1000.0, 0.0138079
1002.0, 0.00214794
1004.0, 0.0197292
1006.0, 0.0145939
1008.0, 0.0045516
1010.0, 0.0162758
1012.0, 0.0109507
1014.0, 0.0180828
1016.0, 0.00541609
1018.0, 0.0118443
1020.0, 0.00629749
1022.0, 0.00835755
1024.0, 0.00498833
1026.0, 0.0155301
1028.0, 0.00529496
1030.0, 0.0171896
1032.0, 0.00763646
1034.0, 0.0114923
1036.0, 0.0128831
1038.0, 0.0225821
1040.0, 0.0184943
1042.0, 0.02471
1044.0, 0.0209161
1046.0, 0.0200379
1048.0, 0.00937562
1050.0, 0.0214758
1052.0, 0.00906909
1054.0, 0.0242036
1056.0, 0.00688074
1058.0, 0.0206267
1060.0, 0.0158507
1062.0, 0.00675989
1064.0, 0.0111504
1066.0, 0.0225588
1068.0, 0.0119902
1070.0, 0.0208671
1072.0, 0.00305689
1074.0, 0.0203182
1076.0, 0.00796184
1078.0, 0.0199685
1080.0, 0.0132738
1082.0, 0.00669605
1084.0, 0.00847987
1086.0, 0.0168793
1088.0, 0.0143058
1090.0, 0.012495
1092.0, 0.00245964
1094.0, 0.0111733
1096.0, 0.0135389
1098.0, 0.0113346
1100.0, 0.00337258
1102.0, 0.0288036
1104.0, 0.0142996
1106.0, 0.00867663
1108.0, 0.0275962
1110.0, 0.0168897
1112.0, 0.0274683
1114.0, 0.00662914
1116.0, 0.00650319
1118.0, 0.0307024
1120.0, 0.0115427
1122.0, 0.0097524
1124.0, 0.00233813
1126.0, 0.0230531
1128.0, 0.0173939
1130.0, 0.00979457
1132.0, 0.0167352
1134.0, 0.0173589
1136.0, 0.0103588
1138.0, 0.0041431
1140.0, 0.0186824
1142.0, 0.00190909
1144.0, 0.0191688
1146.0, 0.00684186
1148.0, 0.00823861
1150.0, 0.0201963
1152.0, 0.00502775
1154.0, 0.0283097
1156.0, 0.00767369
1158.0, 0.0121105
1160.0, 0.0153286
1162.0, 0.00192191
1164.0, 0.0146216
1166.0, 0.00226301
1168.0, 0.00444939
1170.0, 0.0134157
1172.0, 0.0262105
1174.0, 0.0287582
1176.0, 0.0146318
1178.0, 0.0222185
1180.0, 0.0290432
1182.0, 0.0154377
1184.0, 0.00981834
1186.0, 0.0112447
1188.0, 0.00251105
1190.0, 0.0309282
1192.0, 0.0149529
1194.0, 0.00530022
1196.0, 0.0282776
1198.0, 0.00345807
1200.0, 0.0195183
1202.0, 0.0171403
1204.0, 0.023222
1206.0, 0.00936164
1208.0, 0.0162988
1210.0, 0.024828
1212.0, 0.020404
1214.0, 0.0267945
1216.0, 0.00964667
1218.0, 0.0242713
1220.0, 0.01241
1222.0, 0.0118826
1224.0, 0.0185994
1226.0, 0.0163662
1228.0, 0.025601
1230.0, 0.00278705
1232.0, 0.025157
1234.0, 0.0307014
1236.0, 0.0103587
1238.0, 0.0190203
1240.0, 0.0130193
1242.0, 0.0318223
1244.0, 0.0187284
1246.0, 0.019726
1248.0, 0.011835
1250.0, 0.0201684
1252.0, 0.0211847
1254.0, 0.0260928
1256.0, 0.00245509
1258.0, 0.0216886
1260.0, 0.033661
1262.0, 0.0161919
1264.0, 0.0103816
1266.0, 0.0140098
1268.0, 0.0303374
1270.0, 0.0208794
1272.0, 0.0185589
1274.0, 0.0138312
1276.0, 0.00295597
1278.0, 0.00299943
1280.0, 0.000480071
1282, 0.0
1284, 0.0
1286, 0.0
1288, 0.0
1290, 0.0
1292, 0.0
1294, 0.0
1296, 0.0
1298, 0.0
1300, 0.0
1302, 0.0
1304, 0.0
1306, 0.0
1308, 0.0
1310, 0.0
1312, 0.0
1314, 0.0
1316, 0.0
1318, 0.0
1320, 0.0
1322, 0.0
1324, 0.0
1326, 0.0
1328, 0.0
1330, 0.0
1332, 0.0
1334, 0.0
1336, 0.0
1338, 0.0
1340, 0.0
1342, 0.0
1344, 0.0
1346, 0.0
1348, 0.0
1350, 0.0
1352, 0.0
1354, 0.0
1356, 0.0
1358, 0.0
1360, 0.0
1362, 0.0
1364, 0.0
1366, 0.0
1368, 0.0
1370, 0.0
1372, 0.0
1374, 0.0
1376, 0.0
1378, 0.0
1380, 0.0
1382, 0.0
1384, 0.0
1386, 0.0
1388, 0.0
1390, 0.0
1392, 0.0
1394, 0.0
1396, 0.0
1398, 0.0
1400, 0.0
1402, 0.0
1404, 0.0
1406, 0.0
1408, 0.0
1410, 0.0
1412, 0.0
1414, 0.0
1416, 0.0
1418, 0.0
1420, 0.0
1422, 0.0
1424, 0.0
1426, 0.0
1428, 0.0
1430, 0.0
1432, 0.0
1434, 0.0
1436, 0.0
1438, 0.0
1440, 0.0
1442, 0.0
1444, 0.0
1446, 0.0
1448, 0.0
1450, 0.0
1452, 0.0
1454, 0.0
1456, 0.0
1458, 0.0
1460, 0.0
1462, 0.0
1464, 0.0
1466, 0.0
1468, 0.0
1470, 0.0
1472, 0.0
1474, 0.0
1476, 0.0
1478, 0.0
1480, 0.0
1482, 0.0
1484, 0.0
1486, 0.0
1488, 0.0
1490, 0.0
1492, 0.0
1494, 0.0
1496, 0.0
1498, 0.0
1500, 0.0
1502, 0.0
1504, 0.0
1506, 0.0
1508, 0.0
1510, 0.0
1512, 0.0
1514, 0.0
1516, 0.0
1518, 0.0
1520, 0.0
1522, 0.0
1524, 0.0
1526, 0.0
1528, 0.0
1530, 0.0
1532, 0.0
1534, 0.0
1536, 0.0
1538, 0.0
1540, 0.0
1542, 0.0
1544, 0.0
1546, 0.0
1548, 0.0
1550, 0.0
1552, 0.0
1554, 0.0
1556, 0.0
1558, 0.0
1560, 0.0
1562, 0.0
1564, 0.0
1566, 0.0
1568, 0.0
1570, 0.0
1572, 0.0
1574, 0.0
1576, 0.0
1578, 0.0
1580, 0.0
1582, 0.0
1584, 0.0
1586, 0.0
1588, 0.0
1590, 0.0
1592, 0.0
1594, 0.0
1596, 0.0
1598, 0.0
1599, 0.0