File: raw data/Dataset_2/GlassY/GlassY__R110073__Raman__532__0__unoriented__Raman_Data_Processed__35478.txt
30, 0.0
32, 0.0
34, 0.0
36, 0.0
38, 0.0
40, 0.0
42, 0.0
44, 0.0
46, 0.0
48, 0.0
50, 0.0
52, 0.0
54, 0.0
56, 0.0
58, 0.0
60, 0.0
62, 0.0
64, 0.0
66, 0.0
68, 0.0
70, 0.0
72, 0.0
74, 0.0
76, 0.0
78, 0.0
80, 0.0
82, 0.0
84, 0.0
86, 0.0
88, 0.0
90, 0.0
92, 0.0
94, 0.0
96, 0.0
98, 0.0
100, 0.0
102, 0.0
104, 0.0
106, 0.0
108, 0.0
110, 0.0
112, 0.0
114, 0.0
116, 0.0
118, 0.0
120, 0.0
122, 0.0
124, 0.0
126, 0.0
128, 0.0
130, 0.0
132, 0.0
134, 0.0
136, 0.0
138, 0.0
140, 0.0
142, 0.0
144, 0.0
146, 0.0
148, 0.0
150, 0.0
152, 0.0
154, 0.0
156, 0.0
158, 0.0
160, 0.0
162, 0.0
164, 0.0
166, 0.0
168, 0.0
170, 0.0
172, 0.0
174, 0.0
176, 0.0
178, 0.0
180, 0.0
182, 0.0
184, 0.0
186, 0.0
188, 0.0
190.0, 0.997877
192.0, 0.990446
194.0, 0.986542
196.0, 0.994367
198.0, 0.99647
200.0, 0.99607
202.0, 0.991044
204.0, 0.996963
206.0, 0.993315
208.0, 0.987277
210.0, 0.996383
212.0, 0.975561
214.0, 0.971264
216.0, 0.983374
218.0, 0.980371
220.0, 0.978062
222.0, 0.980941
224.0, 0.974792
226.0, 0.970255
228.0, 0.968104
230.0, 0.959869
232.0, 0.956211
234.0, 0.953017
236.0, 0.954648
238.0, 0.953276
240.0, 0.942015
242.0, 0.952374
244.0, 0.948869
246.0, 0.945424
248.0, 0.957901
250.0, 0.94209
252.0, 0.944842
254.0, 0.940304
256.0, 0.940762
258.0, 0.945491
260.0, 0.939756
262.0, 0.934285
264.0, 0.925294
266.0, 0.932664
268.0, 0.938524
270.0, 0.94037
272.0, 0.934959
274.0, 0.930153
276.0, 0.948173
278.0, 0.935798
280.0, 0.932272
282.0, 0.922173
284.0, 0.925297
286.0, 0.929551
288.0, 0.928866
290.0, 0.927871
292.0, 0.922231
294.0, 0.934812
296.0, 0.935193
298.0, 0.928138
300.0, 0.937169
302.0, 0.933551
304.0, 0.944701
306.0, 0.937466
308.0, 0.93013
310.0, 0.940327
312.0, 0.934883
314.0, 0.949249
316.0, 0.941763
318.0, 0.944376
320.0, 0.940971
322.0, 0.946416
324.0, 0.95346
326.0, 0.938921
328.0, 0.95182
330.0, 0.940926
332.0, 0.944707
334.0, 0.954513
336.0, 0.953186
338.0, 0.94478
340.0, 0.960473
342.0, 0.951353
344.0, 0.954026
346.0, 0.957491
348.0, 0.956446
350.0, 0.962222
352.0, 0.962738
354.0, 0.949843
356.0, 0.965055
358.0, 0.963406
360.0, 0.96095
362.0, 0.954621
364.0, 0.962322
366.0, 0.962329
368.0, 0.956198
370.0, 0.949835
372.0, 0.962109
374.0, 0.961248
376.0, 0.955136
378.0, 0.951394
380.0, 0.953602
382.0, 0.960407
384.0, 0.956066
386.0, 0.954667
388.0, 0.951731
390.0, 0.960218
392.0, 0.949278
394.0, 0.950867
396.0, 0.95603
398.0, 0.944871
400.0, 0.95195
402.0, 0.947681
404.0, 0.946529
406.0, 0.948024
408.0, 0.951169
410.0, 0.951078
412.0, 0.953234
414.0, 0.956858
416.0, 0.951669
418.0, 0.948299
420.0, 0.940044
422.0, 0.942091
424.0, 0.944585
426.0, 0.949863
428.0, 0.952046
430.0, 0.946884
432.0, 0.952031
434.0, 0.953039
436.0, 0.946054
438.0, 0.947966
440.0, 0.954801
442.0, 0.958636
444.0, 0.958942
446.0, 0.950028
448.0, 0.961102
450.0, 0.959256
452.0, 0.954957
454.0, 0.956703
456.0, 0.957568
458.0, 0.956186
460.0, 0.960599
462.0, 0.95725
464.0, 0.947063
466.0, 0.958551
468.0, 0.952826
470.0, 0.954674
472.0, 0.95776
474.0, 0.951467
476.0, 0.953135
478.0, 0.949429
480.0, 0.948908
482.0, 0.947804
484.0, 0.956751
486.0, 0.951012
488.0, 0.945703
490.0, 0.948312
492.0, 0.943416
494.0, 0.948975
496.0, 0.95084
498.0, 0.940124
500.0, 0.943705
502.0, 0.933362
504.0, 0.932352
506.0, 0.93172
508.0, 0.930023
510.0, 0.921132
512.0, 0.917771
514.0, 0.909
516.0, 0.909849
518.0, 0.898947
520.0, 0.892172
522.0, 0.884692
524.0, 0.88208
526.0, 0.881097
528.0, 0.880071
530.0, 0.867811
532.0, 0.852007
534.0, 0.849952
536.0, 0.840921
538.0, 0.830322
540.0, 0.827665
542.0, 0.826079
544.0, 0.815905
546.0, 0.808548
548.0, 0.800316
550.0, 0.798868
552.0, 0.789183
554.0, 0.788511
556.0, 0.779914
558.0, 0.770916
560.0, 0.76722
562.0, 0.770108
564.0, 0.760079
566.0, 0.759931
568.0, 0.750265
570.0, 0.745791
572.0, 0.739725
574.0, 0.733652
576.0, 0.730538
578.0, 0.714606
580.0, 0.722047
582.0, 0.70578
584.0, 0.70313
586.0, 0.695269
588.0, 0.676832
590.0, 0.672887
592.0, 0.669891
594.0, 0.657828
596.0, 0.648452
598.0, 0.636024
600.0, 0.624238
602.0, 0.62102
604.0, 0.607252
606.0, 0.592723
608.0, 0.591855
610.0, 0.589638
612.0, 0.576483
614.0, 0.569277
616.0, 0.562613
618.0, 0.558656
620.0, 0.553324
622.0, 0.546019
624.0, 0.53763
626.0, 0.534478
628.0, 0.529951
630.0, 0.5277
632.0, 0.525645
634.0, 0.526373
636.0, 0.526298
638.0, 0.52553
640.0, 0.518443
642.0, 0.512547
644.0, 0.504093
646.0, 0.508591
648.0, 0.502993
650.0, 0.498261
652.0, 0.491739
654.0, 0.494891
656.0, 0.490128
658.0, 0.479285
660.0, 0.484704
662.0, 0.480872
664.0, 0.464179
666.0, 0.465194
668.0, 0.465245
670.0, 0.449006
672.0, 0.444863
674.0, 0.445173
676.0, 0.435488
678.0, 0.433515
680.0, 0.425815
682.0, 0.418712
684.0, 0.411249
686.0, 0.410663
688.0, 0.395639
690.0, 0.396544
692.0, 0.377817
694.0, 0.379297
696.0, 0.372383
698.0, 0.371875
700.0, 0.361256
702.0, 0.357656
704.0, 0.349878
706.0, 0.339541
708.0, 0.341391
710.0, 0.33491
712.0, 0.321317
714.0, 0.322252
716.0, 0.323569
718.0, 0.316501
720.0, 0.304805
722.0, 0.305765
724.0, 0.30068
726.0, 0.295002
728.0, 0.293069
730.0, 0.290444
732.0, 0.288923
734.0, 0.278021
736.0, 0.278439
738.0, 0.274787
740.0, 0.272498
742.0, 0.263384
744.0, 0.264687
746.0, 0.259681
748.0, 0.255183
750.0, 0.250172
752.0, 0.245722
754.0, 0.244547
756.0, 0.24615
758.0, 0.240644
760.0, 0.236837
762.0, 0.237761
764.0, 0.230756
766.0, 0.228574
768.0, 0.224456
770.0, 0.220279
772.0, 0.217471
774.0, 0.217032
776.0, 0.214878
778.0, 0.205391
780.0, 0.205089
782.0, 0.192267
784.0, 0.197443
786.0, 0.191377
788.0, 0.189609
790.0, 0.185625
792.0, 0.178895
794.0, 0.17787
796.0, 0.173208
798.0, 0.164586
800.0, 0.159331
802.0, 0.1587
804.0, 0.152709
806.0, 0.149594
808.0, 0.142349
810.0, 0.139889
812.0, 0.137634
814.0, 0.133547
816.0, 0.138032
818.0, 0.132031
820.0, 0.128578
822.0, 0.129684
824.0, 0.128451
826.0, 0.117382
828.0, 0.12316
830.0, 0.1245
832.0, 0.133698
834.0, 0.130078
836.0, 0.137926
838.0, 0.131762
840.0, 0.140073
842.0, 0.148675
844.0, 0.152284
846.0, 0.161223
848.0, 0.163642
850.0, 0.172795
852.0, 0.181994
854.0, 0.200527
856.0, 0.202277
858.0, 0.212264
860.0, 0.218904
862.0, 0.227965
864.0, 0.246291
866.0, 0.252872
868.0, 0.258258
870.0, 0.276587
872.0, 0.283691
874.0, 0.293205
876.0, 0.309118
878.0, 0.3146
880.0, 0.325611
882.0, 0.336045
884.0, 0.342895
886.0, 0.362377
888.0, 0.370792
890.0, 0.384918
892.0, 0.387153
894.0, 0.402972
896.0, 0.410743
898.0, 0.420296
900.0, 0.432022
902.0, 0.440738
904.0, 0.458587
906.0, 0.465374
908.0, 0.475655
910.0, 0.485258
912.0, 0.494467
914.0, 0.506656
916.0, 0.519135
918.0, 0.524239
920.0, 0.531026
922.0, 0.539819
924.0, 0.550569
926.0, 0.559043
928.0, 0.565405
930.0, 0.578189
932.0, 0.580715
934.0, 0.584784
936.0, 0.59005
938.0, 0.603838
940.0, 0.610834
942.0, 0.614706
944.0, 0.62412
946.0, 0.635434
948.0, 0.635849
950.0, 0.646663
952.0, 0.649505
954.0, 0.65791
956.0, 0.664245
958.0, 0.668515
960.0, 0.680498
962.0, 0.678365
964.0, 0.687146
966.0, 0.702551
968.0, 0.706311
970.0, 0.700826
972.0, 0.709026
974.0, 0.711816
976.0, 0.715974
978.0, 0.724835
980.0, 0.729718
982.0, 0.739925
984.0, 0.738423
986.0, 0.74604
988.0, 0.749103
990.0, 0.750566
992.0, 0.758453
994.0, 0.757316
996.0, 0.762357
998.0, 0.766672
1000.0, 0.769343
1002.0, 0.769187
1004.0, 0.778047
1006.0, 0.777783
1008.0, 0.776498
1010.0, 0.77835
1012.0, 0.769686
1014.0, 0.773713
1016.0, 0.771795
1018.0, 0.770581
1020.0, 0.769975
1022.0, 0.771591
1024.0, 0.765716
1026.0, 0.756264
1028.0, 0.760707
1030.0, 0.751294
1032.0, 0.745567
1034.0, 0.748879
1036.0, 0.742052
1038.0, 0.723303
1040.0, 0.717434
1042.0, 0.711086
1044.0, 0.697528
1046.0, 0.687445
1048.0, 0.675162
1050.0, 0.669672
1052.0, 0.660116
1054.0, 0.646847
1056.0, 0.634664
1058.0, 0.620232
1060.0, 0.603782
1062.0, 0.591056
1064.0, 0.583884
1066.0, 0.563783
1068.0, 0.544512
1070.0, 0.534988
1072.0, 0.524036
1074.0, 0.501286
1076.0, 0.489432
1078.0, 0.477319
1080.0, 0.459231
1082.0, 0.448299
1084.0, 0.434003
1086.0, 0.418085
1088.0, 0.404601
1090.0, 0.387739
1092.0, 0.378898
1094.0, 0.363337
1096.0, 0.350743
1098.0, 0.339149
1100.0, 0.334733
1102.0, 0.311907
1104.0, 0.299281
1106.0, 0.295449
1108.0, 0.279031
1110.0, 0.268366
1112.0, 0.252679
1114.0, 0.249558
1116.0, 0.240831
1118.0, 0.2291
1120.0, 0.225508
1122.0, 0.214507
1124.0, 0.201555
1126.0, 0.193388
1128.0, 0.190592
1130.0, 0.178101
1132.0, 0.171698
1134.0, 0.165139
1136.0, 0.160445
1138.0, 0.157104
1140.0, 0.145083
1142.0, 0.146944
1144.0, 0.134325
1146.0, 0.130807
1148.0, 0.131681
1150.0, 0.118712
1152.0, 0.113629
1154.0, 0.109881
1156.0, 0.103257
1158.0, 0.0945827
1160.0, 0.0961149
1162.0, 0.0941474
1164.0, 0.0878879
1166.0, 0.0839496
1168.0, 0.0773367
1170.0, 0.0782255
1172.0, 0.0719843
1174.0, 0.0757297
1176.0, 0.0728888
1178.0, 0.0649961
1180.0, 0.0603529
1182.0, 0.0589568
1184.0, 0.0533943
1186.0, 0.0610367
1188.0, 0.0533685
1190.0, 0.0503234
1192.0, 0.0469996
1194.0, 0.0398581
1196.0, 0.0428721
1198.0, 0.0438594
1200.0, 0.0402426
1202.0, 0.030311
1204.0, 0.036518
1206.0, 0.0328621
1208.0, 0.0365997
1210.0, 0.0284283
1212.0, 0.0273053
1214.0, 0.0284991
1216.0, 0.0231264
1218.0, 0.0223044
1220.0, 0.0237202
1222.0, 0.0194867
1224.0, 0.0228627
1226.0, 0.0164666
1228.0, 0.018182
1230.0, 0.0192744
1232.0, 0.0156935
1234.0, 0.0145666
1236.0, 0.0176782
1238.0, 0.0092389
1240.0, 0.0146154
1242.0, 0.00955931
1244.0, 0.0147645
1246.0, 0.0185212
1248.0, 0.0106088
1250.0, 0.0124481
1252.0, 0.015073
1254.0, 0.0111365
1256.0, 0.00849814
1258.0, 0.00979762
1260.0, 0.0139081
1262.0, 0.014137
1264.0, 0.00844944
1266.0, 0.0109467
1268.0, 0.0137558
1270.0, 0.0114836
1272.0, 0.0121898
1274.0, 0.0130265
1276.0, 0.00660196
1278.0, 0.0132012
1280.0, 0.0104876
1282.0, 0.00968504
1284.0, 0.00851205
1286.0, 0.00890861
1288.0, 0.0138277
1290.0, 0.00548686
1292.0, 0.0146156
1294.0, 0.00628158
1296.0, 0.00371836
1298.0, 0.00626522
1300.0, 0.00825162
1302.0, 0.00311156
1304, 0.0
1306, 0.0
1308, 0.0
1310, 0.0
1312, 0.0
1314, 0.0
1316, 0.0
1318, 0.0
1320, 0.0
1322, 0.0
1324, 0.0
1326, 0.0
1328, 0.0
1330, 0.0
1332, 0.0
1334, 0.0
1336, 0.0
1338, 0.0
1340, 0.0
1342, 0.0
1344, 0.0
1346, 0.0
1348, 0.0
1350, 0.0
1352, 0.0
1354, 0.0
1356, 0.0
1358, 0.0
1360, 0.0
1362, 0.0
1364, 0.0
1366, 0.0
1368, 0.0
1370, 0.0
1372, 0.0
1374, 0.0
1376, 0.0
1378, 0.0
1380, 0.0
1382, 0.0
1384, 0.0
1386, 0.0
1388, 0.0
1390, 0.0
1392, 0.0
1394, 0.0
1396, 0.0
1398, 0.0
1400, 0.0
1402, 0.0
1404, 0.0
1406, 0.0
1408, 0.0
1410, 0.0
1412, 0.0
1414, 0.0
1416, 0.0
1418, 0.0
1420, 0.0
1422, 0.0
1424, 0.0
1426, 0.0
1428, 0.0
1430, 0.0
1432, 0.0
1434, 0.0
1436, 0.0
1438, 0.0
1440, 0.0
1442, 0.0
1444, 0.0
1446, 0.0
1448, 0.0
1450, 0.0
1452, 0.0
1454, 0.0
1456, 0.0
1458, 0.0
1460, 0.0
1462, 0.0
1464, 0.0
1466, 0.0
1468, 0.0
1470, 0.0
1472, 0.0
1474, 0.0
1476, 0.0
1478, 0.0
1480, 0.0
1482, 0.0
1484, 0.0
1486, 0.0
1488, 0.0
1490, 0.0
1492, 0.0
1494, 0.0
1496, 0.0
1498, 0.0
1500, 0.0
1502, 0.0
1504, 0.0
1506, 0.0
1508, 0.0
1510, 0.0
1512, 0.0
1514, 0.0
1516, 0.0
1518, 0.0
1520, 0.0
1522, 0.0
1524, 0.0
1526, 0.0
1528, 0.0
1530, 0.0
1532, 0.0
1534, 0.0
1536, 0.0
1538, 0.0
1540, 0.0
1542, 0.0
1544, 0.0
1546, 0.0
1548, 0.0
1550, 0.0
1552, 0.0
1554, 0.0
1556, 0.0
1558, 0.0
1560, 0.0
1562, 0.0
1564, 0.0
1566, 0.0
1568, 0.0
1570, 0.0
1572, 0.0
1574, 0.0
1576, 0.0
1578, 0.0
1580, 0.0
1582, 0.0
1584, 0.0
1586, 0.0
1588, 0.0
1590, 0.0
1592, 0.0
1594, 0.0
1596, 0.0
1598, 0.0
1599, 0.0