File: raw data/Dataset_2/GlassY/GlassY__R110073__Raman__780__0__unoriented__Raman_Data_Processed__35479.txt
30, 0.0
32, 0.0
34, 0.0
36, 0.0
38, 0.0
40, 0.0
42, 0.0
44, 0.0
46, 0.0
48, 0.0
50, 0.0
52, 0.0
54, 0.0
56, 0.0
58, 0.0
60, 0.0
62, 0.0
64, 0.0
66, 0.0
68, 0.0
70, 0.0
72, 0.0
74, 0.0
76, 0.0
78, 0.0
80, 0.0
82, 0.0
84, 0.0
86, 0.0
88, 0.0
90, 0.0
92, 0.0
94.0, 0.0534021
96.0, 0.0591256
98.0, 0.0545174
100.0, 0.0471328
102.0, 0.0436153
104.0, 0.0428492
106.0, 0.0446194
108.0, 0.0439577
110.0, 0.0447725
112.0, 0.04549
114.0, 0.0456321
116.0, 0.0464333
118.0, 0.0485494
120.0, 0.0495606
122.0, 0.0506569
124.0, 0.0500799
126.0, 0.0503573
128.0, 0.0511557
130.0, 0.0525028
132.0, 0.0545293
134.0, 0.0547678
136.0, 0.0544111
138.0, 0.0561618
140.0, 0.0568694
142.0, 0.057682
144.0, 0.0591072
146.0, 0.0594739
148.0, 0.0613397
150.0, 0.0607193
152.0, 0.0619612
154.0, 0.0640945
156.0, 0.0649333
158.0, 0.0635227
160.0, 0.06469
162.0, 0.0666743
164.0, 0.0681787
166.0, 0.0675807
168.0, 0.0694113
170.0, 0.0679042
172.0, 0.0682832
174.0, 0.0689255
176.0, 0.0696144
178.0, 0.0703354
180.0, 0.0710103
182.0, 0.0714342
184.0, 0.0733116
186.0, 0.0724958
188.0, 0.0740038
190.0, 0.0753444
192.0, 0.0743834
194.0, 0.0734246
196.0, 0.0749061
198.0, 0.0765181
200.0, 0.0766975
202.0, 0.0760176
204.0, 0.076606
206.0, 0.0787484
208.0, 0.0790204
210.0, 0.0775384
212.0, 0.0803275
214.0, 0.0806278
216.0, 0.0802842
218.0, 0.0814293
220.0, 0.0806972
222.0, 0.0830368
224.0, 0.0837699
226.0, 0.0830918
228.0, 0.0826174
230.0, 0.0830421
232.0, 0.0839207
234.0, 0.0857892
236.0, 0.0853957
238.0, 0.0863052
240.0, 0.086831
242.0, 0.087866
244.0, 0.0866102
246.0, 0.0897393
248.0, 0.0905442
250.0, 0.0901371
252.0, 0.0900434
254.0, 0.0908722
256.0, 0.0916647
258.0, 0.0930181
260.0, 0.0950642
262.0, 0.0959699
264.0, 0.0969067
266.0, 0.0973693
268.0, 0.0984715
270.0, 0.0985743
272.0, 0.0997504
274.0, 0.100724
276.0, 0.101842
278.0, 0.103526
280.0, 0.103972
282.0, 0.104271
284.0, 0.105344
286.0, 0.106022
288.0, 0.107122
290.0, 0.108281
292.0, 0.11173
294.0, 0.110193
296.0, 0.113454
298.0, 0.114607
300.0, 0.115259
302.0, 0.117114
304.0, 0.116835
306.0, 0.119465
308.0, 0.118746
310.0, 0.121595
312.0, 0.122195
314.0, 0.124484
316.0, 0.126414
318.0, 0.127963
320.0, 0.127454
322.0, 0.130294
324.0, 0.133239
326.0, 0.133756
328.0, 0.136389
330.0, 0.138388
332.0, 0.139958
334.0, 0.14213
336.0, 0.145235
338.0, 0.148139
340.0, 0.151076
342.0, 0.154602
344.0, 0.156525
346.0, 0.159735
348.0, 0.161893
350.0, 0.166694
352.0, 0.168026
354.0, 0.171504
356.0, 0.174067
358.0, 0.179884
360.0, 0.181502
362.0, 0.184761
364.0, 0.187182
366.0, 0.19047
368.0, 0.195881
370.0, 0.200459
372.0, 0.204772
374.0, 0.208266
376.0, 0.210007
378.0, 0.21234
380.0, 0.215428
382.0, 0.219209
384.0, 0.223708
386.0, 0.227057
388.0, 0.232124
390.0, 0.234266
392.0, 0.235952
394.0, 0.237332
396.0, 0.241192
398.0, 0.244115
400.0, 0.245211
402.0, 0.247637
404.0, 0.250082
406.0, 0.251395
408.0, 0.253929
410.0, 0.254046
412.0, 0.256206
414.0, 0.256909
416.0, 0.257119
418.0, 0.257372
420.0, 0.257333
422.0, 0.259201
424.0, 0.258565
426.0, 0.258872
428.0, 0.256858
430.0, 0.256353
432.0, 0.255559
434.0, 0.254688
436.0, 0.254021
438.0, 0.25274
440.0, 0.251303
442.0, 0.251669
444.0, 0.250776
446.0, 0.247043
448.0, 0.246463
450.0, 0.244155
452.0, 0.241959
454.0, 0.240467
456.0, 0.239028
458.0, 0.236291
460.0, 0.234989
462.0, 0.233309
464.0, 0.231614
466.0, 0.228661
468.0, 0.227528
470.0, 0.225129
472.0, 0.224863
474.0, 0.222454
476.0, 0.220537
478.0, 0.219828
480.0, 0.21713
482.0, 0.214462
484.0, 0.213111
486.0, 0.21408
488.0, 0.212324
490.0, 0.209658
492.0, 0.208133
494.0, 0.207442
496.0, 0.20694
498.0, 0.205606
500.0, 0.202912
502.0, 0.20297
504.0, 0.201788
506.0, 0.200339
508.0, 0.200032
510.0, 0.198679
512.0, 0.196276
514.0, 0.195723
516.0, 0.19433
518.0, 0.189641
520.0, 0.189195
522.0, 0.188237
524.0, 0.186523
526.0, 0.185884
528.0, 0.181942
530.0, 0.18231
532.0, 0.178702
534.0, 0.177473
536.0, 0.177764
538.0, 0.175358
540.0, 0.173156
542.0, 0.172012
544.0, 0.168395
546.0, 0.169019
548.0, 0.165137
550.0, 0.165476
552.0, 0.164505
554.0, 0.16333
556.0, 0.161377
558.0, 0.159696
560.0, 0.159218
562.0, 0.156202
564.0, 0.154583
566.0, 0.155052
568.0, 0.1537
570.0, 0.151232
572.0, 0.149617
574.0, 0.14873
576.0, 0.146681
578.0, 0.144751
580.0, 0.144132
582.0, 0.140879
584.0, 0.140091
586.0, 0.139025
588.0, 0.135568
590.0, 0.133965
592.0, 0.132344
594.0, 0.131236
596.0, 0.129857
598.0, 0.128498
600.0, 0.126284
602.0, 0.12435
604.0, 0.122201
606.0, 0.120955
608.0, 0.118293
610.0, 0.118512
612.0, 0.116657
614.0, 0.115084
616.0, 0.114684
618.0, 0.11204
620.0, 0.110954
622.0, 0.110958
624.0, 0.108278
626.0, 0.107786
628.0, 0.106579
630.0, 0.104412
632.0, 0.103584
634.0, 0.103316
636.0, 0.101712
638.0, 0.0998574
640.0, 0.100663
642.0, 0.0991171
644.0, 0.0958369
646.0, 0.0966148
648.0, 0.0941988
650.0, 0.0930068
652.0, 0.0920354
654.0, 0.0918805
656.0, 0.0906367
658.0, 0.0881863
660.0, 0.0873742
662.0, 0.084278
664.0, 0.0838294
666.0, 0.0839012
668.0, 0.0834842
670.0, 0.0810113
672.0, 0.0782278
674.0, 0.0783752
676.0, 0.0763049
678.0, 0.0748534
680.0, 0.0731673
682.0, 0.0727629
684.0, 0.0711724
686.0, 0.069545
688.0, 0.0687814
690.0, 0.067761
692.0, 0.0667048
694.0, 0.0662003
696.0, 0.063089
698.0, 0.062925
700.0, 0.060811
702.0, 0.0600191
704.0, 0.0587459
706.0, 0.0581147
708.0, 0.0573751
710.0, 0.0570403
712.0, 0.0551421
714.0, 0.0540076
716.0, 0.0527713
718.0, 0.0508629
720.0, 0.0499213
722.0, 0.0493219
724.0, 0.0469598
726.0, 0.047647
728.0, 0.0461585
730.0, 0.0447711
732.0, 0.045454
734.0, 0.0431946
736.0, 0.0420193
738.0, 0.0415543
740.0, 0.0400229
742.0, 0.040289
744.0, 0.0388498
746.0, 0.0372281
748.0, 0.0369164
750.0, 0.0363627
752.0, 0.0347674
754.0, 0.0345811
756.0, 0.0324944
758.0, 0.0324349
760.0, 0.0302133
762.0, 0.031791
764.0, 0.0284748
766.0, 0.0284783
768.0, 0.0278351
770.0, 0.028162
772.0, 0.0266975
774.0, 0.0259737
776.0, 0.0252372
778.0, 0.0235813
780.0, 0.0229944
782.0, 0.0230303
784.0, 0.0206401
786.0, 0.0191803
788.0, 0.018416
790.0, 0.0179462
792.0, 0.0174821
794.0, 0.0172887
796.0, 0.0169071
798.0, 0.0150751
800.0, 0.0141152
802.0, 0.0135737
804.0, 0.0118609
806.0, 0.0117852
808.0, 0.0101772
810.0, 0.00974949
812.0, 0.00926728
814.0, 0.00798309
816.0, 0.00606543
818.0, 0.00703181
820.0, 0.00580541
822.0, 0.0051975
824.0, 0.00630569
826.0, 0.00351426
828.0, 0.00419555
830.0, 0.00311819
832.0, 0.00318132
834.0, 0.00380203
836.0, 0.00430215
838.0, 0.00249666
840.0, 0.00235633
842.0, 0.00102246
844.0, 0.000708888
846.0, 0.00189914
848.0, 0.000336767
850.0, 0.00136938
852.0, 0.00236765
854.0, 0.00160209
856.0, 0.00137124
858.0, 0.00220334
860.0, 0.0032745
862.0, 0.00272935
864.0, 0.00430942
866.0, 0.00280681
868.0, 0.00303291
870.0, 0.00418058
872.0, 0.00394328
874.0, 0.00469315
876.0, 0.00522178
878.0, 0.00574141
880.0, 0.00529021
882.0, 0.00553495
884.0, 0.00662077
886.0, 0.00675851
888.0, 0.00613456
890.0, 0.00703007
892.0, 0.00882235
894.0, 0.00774682
896.0, 0.00867888
898.0, 0.00868176
900.0, 0.00809914
902.0, 0.0100086
904.0, 0.0105978
906.0, 0.0105846
908.0, 0.0125332
910.0, 0.0122941
912.0, 0.0137469
914.0, 0.0140853
916.0, 0.0141263
918.0, 0.0156366
920.0, 0.0150002
922.0, 0.0157549
924.0, 0.0170595
926.0, 0.0163184
928.0, 0.016667
930.0, 0.0180431
932.0, 0.0191607
934.0, 0.0211491
936.0, 0.0201162
938.0, 0.0210802
940.0, 0.0207633
942.0, 0.0214625
944.0, 0.0220933
946.0, 0.0223857
948.0, 0.0230477
950.0, 0.0247988
952.0, 0.0247322
954.0, 0.0261881
956.0, 0.0272962
958.0, 0.0278719
960.0, 0.0285736
962.0, 0.0287445
964.0, 0.0302196
966.0, 0.0302949
968.0, 0.0313956
970.0, 0.0315941
972.0, 0.0317482
974.0, 0.0332637
976.0, 0.0349469
978.0, 0.034604
980.0, 0.0351735
982.0, 0.0369075
984.0, 0.036987
986.0, 0.0386025
988.0, 0.0396564
990.0, 0.0405254
992.0, 0.041538
994.0, 0.0421248
996.0, 0.0458249
998.0, 0.0438914
1000.0, 0.0466224
1002.0, 0.0476266
1004.0, 0.0481133
1006.0, 0.0493699
1008.0, 0.0500637
1010.0, 0.0527752
1012.0, 0.0540785
1014.0, 0.0551661
1016.0, 0.0564837
1018.0, 0.0588301
1020.0, 0.0591072
1022.0, 0.0612913
1024.0, 0.0619831
1026.0, 0.0640806
1028.0, 0.0650313
1030.0, 0.0665348
1032.0, 0.0688217
1034.0, 0.0707327
1036.0, 0.0731302
1038.0, 0.0754729
1040.0, 0.0766045
1042.0, 0.0786647
1044.0, 0.079542
1046.0, 0.0809978
1048.0, 0.0850644
1050.0, 0.0871414
1052.0, 0.0896021
1054.0, 0.0930354
1056.0, 0.0953625
1058.0, 0.0974767
1060.0, 0.0988414
1062.0, 0.102859
1064.0, 0.10587
1066.0, 0.108206
1068.0, 0.112734
1070.0, 0.117862
1072.0, 0.118641
1074.0, 0.123333
1076.0, 0.126896
1078.0, 0.129984
1080.0, 0.135252
1082.0, 0.139008
1084.0, 0.143978
1086.0, 0.150529
1088.0, 0.154169
1090.0, 0.160633
1092.0, 0.164616
1094.0, 0.170607
1096.0, 0.174421
1098.0, 0.182768
1100.0, 0.18688
1102.0, 0.192088
1104.0, 0.198714
1106.0, 0.204501
1108.0, 0.212805
1110.0, 0.219124
1112.0, 0.223231
1114.0, 0.229724
1116.0, 0.237385
1118.0, 0.244535
1120.0, 0.252193
1122.0, 0.258361
1124.0, 0.268207
1126.0, 0.274481
1128.0, 0.283674
1130.0, 0.292522
1132.0, 0.301422
1134.0, 0.310673
1136.0, 0.320245
1138.0, 0.327548
1140.0, 0.338451
1142.0, 0.347934
1144.0, 0.359223
1146.0, 0.367211
1148.0, 0.378434
1150.0, 0.389432
1152.0, 0.398776
1154.0, 0.410002
1156.0, 0.420951
1158.0, 0.429963
1160.0, 0.441526
1162.0, 0.452169
1164.0, 0.467009
1166.0, 0.476406
1168.0, 0.488489
1170.0, 0.501451
1172.0, 0.512475
1174.0, 0.525272
1176.0, 0.534339
1178.0, 0.54618
1180.0, 0.558981
1182.0, 0.571187
1184.0, 0.579012
1186.0, 0.592556
1188.0, 0.602057
1190.0, 0.613387
1192.0, 0.625671
1194.0, 0.636152
1196.0, 0.64722
1198.0, 0.656897
1200.0, 0.666808
1202.0, 0.67789
1204.0, 0.686432
1206.0, 0.70045
1208.0, 0.707968
1210.0, 0.72057
1212.0, 0.730066
1214.0, 0.738854
1216.0, 0.750525
1218.0, 0.757937
1220.0, 0.766171
1222.0, 0.775535
1224.0, 0.783133
1226.0, 0.792343
1228.0, 0.799142
1230.0, 0.808748
1232.0, 0.819132
1234.0, 0.825512
1236.0, 0.833078
1238.0, 0.839675
1240.0, 0.844268
1242.0, 0.847968
1244.0, 0.858014
1246.0, 0.861885
1248.0, 0.871509
1250.0, 0.875907
1252.0, 0.878212
1254.0, 0.885598
1256.0, 0.892037
1258.0, 0.898108
1260.0, 0.905849
1262.0, 0.913039
1264.0, 0.919534
1266.0, 0.924021
1268.0, 0.931344
1270.0, 0.93871
1272.0, 0.944104
1274.0, 0.953221
1276.0, 0.955951
1278.0, 0.96761
1280.0, 0.976063
1282.0, 0.986005
1284.0, 0.999059
1286, 0.0
1288, 0.0
1290, 0.0
1292, 0.0
1294, 0.0
1296, 0.0
1298, 0.0
1300, 0.0
1302, 0.0
1304, 0.0
1306, 0.0
1308, 0.0
1310, 0.0
1312, 0.0
1314, 0.0
1316, 0.0
1318, 0.0
1320, 0.0
1322, 0.0
1324, 0.0
1326, 0.0
1328, 0.0
1330, 0.0
1332, 0.0
1334, 0.0
1336, 0.0
1338, 0.0
1340, 0.0
1342, 0.0
1344, 0.0
1346, 0.0
1348, 0.0
1350, 0.0
1352, 0.0
1354, 0.0
1356, 0.0
1358, 0.0
1360, 0.0
1362, 0.0
1364, 0.0
1366, 0.0
1368, 0.0
1370, 0.0
1372, 0.0
1374, 0.0
1376, 0.0
1378, 0.0
1380, 0.0
1382, 0.0
1384, 0.0
1386, 0.0
1388, 0.0
1390, 0.0
1392, 0.0
1394, 0.0
1396, 0.0
1398, 0.0
1400, 0.0
1402, 0.0
1404, 0.0
1406, 0.0
1408, 0.0
1410, 0.0
1412, 0.0
1414, 0.0
1416, 0.0
1418, 0.0
1420, 0.0
1422, 0.0
1424, 0.0
1426, 0.0
1428, 0.0
1430, 0.0
1432, 0.0
1434, 0.0
1436, 0.0
1438, 0.0
1440, 0.0
1442, 0.0
1444, 0.0
1446, 0.0
1448, 0.0
1450, 0.0
1452, 0.0
1454, 0.0
1456, 0.0
1458, 0.0
1460, 0.0
1462, 0.0
1464, 0.0
1466, 0.0
1468, 0.0
1470, 0.0
1472, 0.0
1474, 0.0
1476, 0.0
1478, 0.0
1480, 0.0
1482, 0.0
1484, 0.0
1486, 0.0
1488, 0.0
1490, 0.0
1492, 0.0
1494, 0.0
1496, 0.0
1498, 0.0
1500, 0.0
1502, 0.0
1504, 0.0
1506, 0.0
1508, 0.0
1510, 0.0
1512, 0.0
1514, 0.0
1516, 0.0
1518, 0.0
1520, 0.0
1522, 0.0
1524, 0.0
1526, 0.0
1528, 0.0
1530, 0.0
1532, 0.0
1534, 0.0
1536, 0.0
1538, 0.0
1540, 0.0
1542, 0.0
1544, 0.0
1546, 0.0
1548, 0.0
1550, 0.0
1552, 0.0
1554, 0.0
1556, 0.0
1558, 0.0
1560, 0.0
1562, 0.0
1564, 0.0
1566, 0.0
1568, 0.0
1570, 0.0
1572, 0.0
1574, 0.0
1576, 0.0
1578, 0.0
1580, 0.0
1582, 0.0
1584, 0.0
1586, 0.0
1588, 0.0
1590, 0.0
1592, 0.0
1594, 0.0
1596, 0.0
1598, 0.0
1599, 0.0