File: raw data/Dataset_2/GlassLa/GlassLa__R110074__Raman__780__0__unoriented__Raman_Data_Processed__35481.txt
30, 0.0
32, 0.0
34, 0.0
36, 0.0
38, 0.0
40, 0.0
42, 0.0
44, 0.0
46, 0.0
48, 0.0
50, 0.0
52, 0.0
54, 0.0
56, 0.0
58, 0.0
60, 0.0
62, 0.0
64, 0.0
66, 0.0
68, 0.0
70, 0.0
72, 0.0
74, 0.0
76, 0.0
78, 0.0
80, 0.0
82, 0.0
84, 0.0
86, 0.0
88, 0.0
90, 0.0
92, 0.0
94, 0.0
96, 0.0
98.0, 0.0094957
100.0, 0.00451785
102.0, 0.00144323
104.0, 4.7769e-05
106.0, 0.00173579
108.0, 0.00200683
110.0, 0.00265152
112.0, 0.00356063
114.0, 0.0041382
116.0, 0.00410194
118.0, 0.00625302
120.0, 0.00561552
122.0, 0.00639072
124.0, 0.00715505
126.0, 0.00798463
128.0, 0.00802791
130.0, 0.00905066
132.0, 0.00914664
134.0, 0.00914993
136.0, 0.0100599
138.0, 0.0119146
140.0, 0.0124967
142.0, 0.0122647
144.0, 0.0138334
146.0, 0.0135897
148.0, 0.0138935
150.0, 0.0149765
152.0, 0.0169101
154.0, 0.016833
156.0, 0.0187661
158.0, 0.0189151
160.0, 0.0198466
162.0, 0.0202951
164.0, 0.0213145
166.0, 0.0228522
168.0, 0.0227739
170.0, 0.0245323
172.0, 0.0244057
174.0, 0.0248926
176.0, 0.0259391
178.0, 0.0264875
180.0, 0.0283381
182.0, 0.0287602
184.0, 0.0303165
186.0, 0.0297286
188.0, 0.0304077
190.0, 0.0323745
192.0, 0.0326803
194.0, 0.0344103
196.0, 0.0338986
198.0, 0.0352771
200.0, 0.0373439
202.0, 0.0374055
204.0, 0.038631
206.0, 0.0392969
208.0, 0.0405013
210.0, 0.0405661
212.0, 0.0425176
214.0, 0.0436185
216.0, 0.0449603
218.0, 0.0457783
220.0, 0.0466408
222.0, 0.0483214
224.0, 0.0490227
226.0, 0.0500817
228.0, 0.0498756
230.0, 0.0515748
232.0, 0.0522865
234.0, 0.0527249
236.0, 0.0545175
238.0, 0.0556025
240.0, 0.0557319
242.0, 0.0556755
244.0, 0.0572837
246.0, 0.0580579
248.0, 0.059775
250.0, 0.0603222
252.0, 0.061401
254.0, 0.0617128
256.0, 0.0626529
258.0, 0.0640584
260.0, 0.0654148
262.0, 0.0669815
264.0, 0.0672491
266.0, 0.0673474
268.0, 0.0682209
270.0, 0.0704003
272.0, 0.0701317
274.0, 0.0726377
276.0, 0.0733509
278.0, 0.0745742
280.0, 0.0755057
282.0, 0.0762115
284.0, 0.0766007
286.0, 0.0770853
288.0, 0.0795028
290.0, 0.0805492
292.0, 0.0804899
294.0, 0.080476
296.0, 0.0824177
298.0, 0.0831797
300.0, 0.0835524
302.0, 0.0830003
304.0, 0.0862384
306.0, 0.0862004
308.0, 0.0883939
310.0, 0.0885663
312.0, 0.0891884
314.0, 0.0911662
316.0, 0.092797
318.0, 0.0924166
320.0, 0.0946754
322.0, 0.0954744
324.0, 0.0972863
326.0, 0.0987775
328.0, 0.0991878
330.0, 0.101302
332.0, 0.103485
334.0, 0.104042
336.0, 0.106939
338.0, 0.109883
340.0, 0.111004
342.0, 0.112405
344.0, 0.116993
346.0, 0.119124
348.0, 0.121613
350.0, 0.122352
352.0, 0.126884
354.0, 0.128711
356.0, 0.131271
358.0, 0.133625
360.0, 0.137197
362.0, 0.139755
364.0, 0.143881
366.0, 0.146707
368.0, 0.149993
370.0, 0.154921
372.0, 0.157425
374.0, 0.16068
376.0, 0.16384
378.0, 0.167334
380.0, 0.169313
382.0, 0.174803
384.0, 0.178841
386.0, 0.181263
388.0, 0.184496
390.0, 0.188701
392.0, 0.192659
394.0, 0.195511
396.0, 0.198172
398.0, 0.201191
400.0, 0.202555
402.0, 0.206789
404.0, 0.20981
406.0, 0.212255
408.0, 0.21359
410.0, 0.215646
412.0, 0.217705
414.0, 0.220528
416.0, 0.221179
418.0, 0.221705
420.0, 0.223302
422.0, 0.224838
424.0, 0.226057
426.0, 0.226689
428.0, 0.224977
430.0, 0.226579
432.0, 0.225492
434.0, 0.226234
436.0, 0.226286
438.0, 0.224972
440.0, 0.224648
442.0, 0.224794
444.0, 0.22361
446.0, 0.221998
448.0, 0.221176
450.0, 0.218015
452.0, 0.217698
454.0, 0.217449
456.0, 0.216088
458.0, 0.213118
460.0, 0.21392
462.0, 0.211509
464.0, 0.209759
466.0, 0.207397
468.0, 0.207811
470.0, 0.205293
472.0, 0.20341
474.0, 0.201427
476.0, 0.199691
478.0, 0.198494
480.0, 0.197119
482.0, 0.197382
484.0, 0.196036
486.0, 0.19352
488.0, 0.192341
490.0, 0.19128
492.0, 0.190802
494.0, 0.189541
496.0, 0.188766
498.0, 0.185407
500.0, 0.18625
502.0, 0.185347
504.0, 0.183446
506.0, 0.183207
508.0, 0.18208
510.0, 0.181095
512.0, 0.180328
514.0, 0.177389
516.0, 0.176762
518.0, 0.175954
520.0, 0.174751
522.0, 0.173366
524.0, 0.172328
526.0, 0.171641
528.0, 0.168584
530.0, 0.167524
532.0, 0.16615
534.0, 0.166035
536.0, 0.165395
538.0, 0.16309
540.0, 0.162961
542.0, 0.161338
544.0, 0.159582
546.0, 0.159642
548.0, 0.156469
550.0, 0.156997
552.0, 0.156025
554.0, 0.156754
556.0, 0.155408
558.0, 0.153359
560.0, 0.153176
562.0, 0.15241
564.0, 0.15072
566.0, 0.150701
568.0, 0.150216
570.0, 0.149057
572.0, 0.146754
574.0, 0.147622
576.0, 0.146818
578.0, 0.145645
580.0, 0.145019
582.0, 0.143388
584.0, 0.142251
586.0, 0.142726
588.0, 0.141972
590.0, 0.14039
592.0, 0.140832
594.0, 0.139245
596.0, 0.138951
598.0, 0.137958
600.0, 0.134713
602.0, 0.136613
604.0, 0.134102
606.0, 0.134013
608.0, 0.133317
610.0, 0.132784
612.0, 0.132688
614.0, 0.132401
616.0, 0.130306
618.0, 0.130542
620.0, 0.12908
622.0, 0.129037
624.0, 0.127116
626.0, 0.127118
628.0, 0.126377
630.0, 0.12662
632.0, 0.126432
634.0, 0.125398
636.0, 0.123268
638.0, 0.124419
640.0, 0.123201
642.0, 0.122986
644.0, 0.12116
646.0, 0.12187
648.0, 0.121593
650.0, 0.119164
652.0, 0.118439
654.0, 0.118749
656.0, 0.117351
658.0, 0.117802
660.0, 0.117015
662.0, 0.11542
664.0, 0.113239
666.0, 0.113882
668.0, 0.114902
670.0, 0.112645
672.0, 0.112776
674.0, 0.111487
676.0, 0.111517
678.0, 0.111153
680.0, 0.110502
682.0, 0.108913
684.0, 0.108492
686.0, 0.10811
688.0, 0.107163
690.0, 0.105975
692.0, 0.105717
694.0, 0.105272
696.0, 0.105191
698.0, 0.103505
700.0, 0.102848
702.0, 0.103197
704.0, 0.102469
706.0, 0.102548
708.0, 0.102144
710.0, 0.102464
712.0, 0.101213
714.0, 0.100897
716.0, 0.0997214
718.0, 0.0992004
720.0, 0.0989207
722.0, 0.0978553
724.0, 0.0992617
726.0, 0.0975189
728.0, 0.0981619
730.0, 0.0974178
732.0, 0.0981634
734.0, 0.0975171
736.0, 0.0961448
738.0, 0.0956718
740.0, 0.0941664
742.0, 0.0952839
744.0, 0.0933591
746.0, 0.0938439
748.0, 0.0940128
750.0, 0.0947678
752.0, 0.0942875
754.0, 0.093389
756.0, 0.0918179
758.0, 0.0924677
760.0, 0.0914076
762.0, 0.0919974
764.0, 0.0911682
766.0, 0.0911176
768.0, 0.0895277
770.0, 0.0905456
772.0, 0.0897445
774.0, 0.0894272
776.0, 0.0891
778.0, 0.0888444
780.0, 0.089973
782.0, 0.089383
784.0, 0.0889988
786.0, 0.0889014
788.0, 0.0889605
790.0, 0.0876574
792.0, 0.088611
794.0, 0.0882341
796.0, 0.0876829
798.0, 0.0861386
800.0, 0.0862187
802.0, 0.0861097
804.0, 0.0847838
806.0, 0.0857384
808.0, 0.0856957
810.0, 0.0853321
812.0, 0.0843767
814.0, 0.0835225
816.0, 0.083296
818.0, 0.0836777
820.0, 0.0838333
822.0, 0.0836244
824.0, 0.0829394
826.0, 0.0827246
828.0, 0.081916
830.0, 0.0822898
832.0, 0.0815988
834.0, 0.0808436
836.0, 0.0820946
838.0, 0.081589
840.0, 0.0819223
842.0, 0.0804958
844.0, 0.0806653
846.0, 0.0800096
848.0, 0.0809215
850.0, 0.0817665
852.0, 0.0828724
854.0, 0.0814151
856.0, 0.081622
858.0, 0.0815536
860.0, 0.0824042
862.0, 0.0810053
864.0, 0.0819537
866.0, 0.0834437
868.0, 0.0826287
870.0, 0.082524
872.0, 0.0828693
874.0, 0.0843704
876.0, 0.0838904
878.0, 0.0858457
880.0, 0.0844044
882.0, 0.0851666
884.0, 0.0855406
886.0, 0.0852361
888.0, 0.0851794
890.0, 0.087218
892.0, 0.0874602
894.0, 0.0877915
896.0, 0.087463
898.0, 0.0888187
900.0, 0.0873321
902.0, 0.0886481
904.0, 0.0897745
906.0, 0.0904366
908.0, 0.0930855
910.0, 0.0929463
912.0, 0.0931872
914.0, 0.0942305
916.0, 0.0938479
918.0, 0.0970374
920.0, 0.0952417
922.0, 0.0978208
924.0, 0.097116
926.0, 0.0979282
928.0, 0.099221
930.0, 0.099206
932.0, 0.100872
934.0, 0.101733
936.0, 0.102673
938.0, 0.102225
940.0, 0.103532
942.0, 0.104545
944.0, 0.10368
946.0, 0.105204
948.0, 0.105875
950.0, 0.107453
952.0, 0.108612
954.0, 0.108696
956.0, 0.109538
958.0, 0.109886
960.0, 0.111922
962.0, 0.111941
964.0, 0.112434
966.0, 0.112832
968.0, 0.112684
970.0, 0.114038
972.0, 0.115813
974.0, 0.115527
976.0, 0.117647
978.0, 0.11798
980.0, 0.119135
982.0, 0.120484
984.0, 0.123577
986.0, 0.122103
988.0, 0.124925
990.0, 0.125908
992.0, 0.12642
994.0, 0.127716
996.0, 0.12837
998.0, 0.131064
1000.0, 0.130854
1002.0, 0.132299
1004.0, 0.134414
1006.0, 0.135728
1008.0, 0.137702
1010.0, 0.137799
1012.0, 0.140877
1014.0, 0.142462
1016.0, 0.142586
1018.0, 0.145398
1020.0, 0.146441
1022.0, 0.147816
1024.0, 0.148918
1026.0, 0.150735
1028.0, 0.152118
1030.0, 0.155346
1032.0, 0.156847
1034.0, 0.159036
1036.0, 0.161995
1038.0, 0.162639
1040.0, 0.16412
1042.0, 0.167081
1044.0, 0.167907
1046.0, 0.168863
1048.0, 0.171427
1050.0, 0.173877
1052.0, 0.176769
1054.0, 0.179147
1056.0, 0.181958
1058.0, 0.182819
1060.0, 0.186802
1062.0, 0.188167
1064.0, 0.191508
1066.0, 0.196171
1068.0, 0.197722
1070.0, 0.202185
1072.0, 0.204312
1074.0, 0.206933
1076.0, 0.210851
1078.0, 0.213388
1080.0, 0.217758
1082.0, 0.222374
1084.0, 0.226322
1086.0, 0.229779
1088.0, 0.234838
1090.0, 0.240632
1092.0, 0.244
1094.0, 0.25001
1096.0, 0.252551
1098.0, 0.25721
1100.0, 0.261587
1102.0, 0.266576
1104.0, 0.272984
1106.0, 0.277557
1108.0, 0.284946
1110.0, 0.290211
1112.0, 0.293295
1114.0, 0.299345
1116.0, 0.305431
1118.0, 0.311739
1120.0, 0.318879
1122.0, 0.325514
1124.0, 0.332724
1126.0, 0.338413
1128.0, 0.347078
1130.0, 0.354296
1132.0, 0.362549
1134.0, 0.371186
1136.0, 0.380528
1138.0, 0.38548
1140.0, 0.394399
1142.0, 0.402667
1144.0, 0.412245
1146.0, 0.42053
1148.0, 0.432486
1150.0, 0.439651
1152.0, 0.449544
1154.0, 0.458033
1156.0, 0.467855
1158.0, 0.477015
1160.0, 0.487675
1162.0, 0.495593
1164.0, 0.505568
1166.0, 0.517691
1168.0, 0.526374
1170.0, 0.537891
1172.0, 0.548084
1174.0, 0.558298
1176.0, 0.568765
1178.0, 0.578335
1180.0, 0.589862
1182.0, 0.599706
1184.0, 0.609192
1186.0, 0.618555
1188.0, 0.631202
1190.0, 0.638887
1192.0, 0.65296
1194.0, 0.66022
1196.0, 0.670597
1198.0, 0.677011
1200.0, 0.68773
1202.0, 0.700453
1204.0, 0.707188
1206.0, 0.717451
1208.0, 0.725994
1210.0, 0.736673
1212.0, 0.74497
1214.0, 0.755172
1216.0, 0.764183
1218.0, 0.770208
1220.0, 0.77824
1222.0, 0.788652
1224.0, 0.794968
1226.0, 0.804097
1228.0, 0.811486
1230.0, 0.819002
1232.0, 0.826858
1234.0, 0.833902
1236.0, 0.840637
1238.0, 0.847085
1240.0, 0.851172
1242.0, 0.856327
1244.0, 0.864981
1246.0, 0.870475
1248.0, 0.879822
1250.0, 0.882699
1252.0, 0.886173
1254.0, 0.891121
1256.0, 0.900509
1258.0, 0.905364
1260.0, 0.911179
1262.0, 0.920677
1264.0, 0.924737
1266.0, 0.93104
1268.0, 0.936975
1270.0, 0.943178
1272.0, 0.948315
1274.0, 0.954955
1276.0, 0.961779
1278.0, 0.969842
1280.0, 0.977062
1282.0, 0.986728
1284.0, 0.996986
1286, 0.0
1288, 0.0
1290, 0.0
1292, 0.0
1294, 0.0
1296, 0.0
1298, 0.0
1300, 0.0
1302, 0.0
1304, 0.0
1306, 0.0
1308, 0.0
1310, 0.0
1312, 0.0
1314, 0.0
1316, 0.0
1318, 0.0
1320, 0.0
1322, 0.0
1324, 0.0
1326, 0.0
1328, 0.0
1330, 0.0
1332, 0.0
1334, 0.0
1336, 0.0
1338, 0.0
1340, 0.0
1342, 0.0
1344, 0.0
1346, 0.0
1348, 0.0
1350, 0.0
1352, 0.0
1354, 0.0
1356, 0.0
1358, 0.0
1360, 0.0
1362, 0.0
1364, 0.0
1366, 0.0
1368, 0.0
1370, 0.0
1372, 0.0
1374, 0.0
1376, 0.0
1378, 0.0
1380, 0.0
1382, 0.0
1384, 0.0
1386, 0.0
1388, 0.0
1390, 0.0
1392, 0.0
1394, 0.0
1396, 0.0
1398, 0.0
1400, 0.0
1402, 0.0
1404, 0.0
1406, 0.0
1408, 0.0
1410, 0.0
1412, 0.0
1414, 0.0
1416, 0.0
1418, 0.0
1420, 0.0
1422, 0.0
1424, 0.0
1426, 0.0
1428, 0.0
1430, 0.0
1432, 0.0
1434, 0.0
1436, 0.0
1438, 0.0
1440, 0.0
1442, 0.0
1444, 0.0
1446, 0.0
1448, 0.0
1450, 0.0
1452, 0.0
1454, 0.0
1456, 0.0
1458, 0.0
1460, 0.0
1462, 0.0
1464, 0.0
1466, 0.0
1468, 0.0
1470, 0.0
1472, 0.0
1474, 0.0
1476, 0.0
1478, 0.0
1480, 0.0
1482, 0.0
1484, 0.0
1486, 0.0
1488, 0.0
1490, 0.0
1492, 0.0
1494, 0.0
1496, 0.0
1498, 0.0
1500, 0.0
1502, 0.0
1504, 0.0
1506, 0.0
1508, 0.0
1510, 0.0
1512, 0.0
1514, 0.0
1516, 0.0
1518, 0.0
1520, 0.0
1522, 0.0
1524, 0.0
1526, 0.0
1528, 0.0
1530, 0.0
1532, 0.0
1534, 0.0
1536, 0.0
1538, 0.0
1540, 0.0
1542, 0.0
1544, 0.0
1546, 0.0
1548, 0.0
1550, 0.0
1552, 0.0
1554, 0.0
1556, 0.0
1558, 0.0
1560, 0.0
1562, 0.0
1564, 0.0
1566, 0.0
1568, 0.0
1570, 0.0
1572, 0.0
1574, 0.0
1576, 0.0
1578, 0.0
1580, 0.0
1582, 0.0
1584, 0.0
1586, 0.0
1588, 0.0
1590, 0.0
1592, 0.0
1594, 0.0
1596, 0.0
1598, 0.0
1599, 0.0