File: raw data/Dataset_2/GlassLa/GlassLa__R110074__Raman__532__0__unoriented__Raman_Data_Processed__35482.txt
30, 0.0
32, 0.0
34, 0.0
36, 0.0
38, 0.0
40, 0.0
42, 0.0
44, 0.0
46, 0.0
48, 0.0
50, 0.0
52, 0.0
54, 0.0
56, 0.0
58, 0.0
60, 0.0
62, 0.0
64, 0.0
66, 0.0
68, 0.0
70, 0.0
72, 0.0
74, 0.0
76, 0.0
78, 0.0
80, 0.0
82, 0.0
84, 0.0
86, 0.0
88, 0.0
90, 0.0
92, 0.0
94, 0.0
96, 0.0
98, 0.0
100, 0.0
102, 0.0
104, 0.0
106, 0.0
108, 0.0
110, 0.0
112, 0.0
114, 0.0
116, 0.0
118, 0.0
120, 0.0
122, 0.0
124, 0.0
126, 0.0
128, 0.0
130, 0.0
132, 0.0
134, 0.0
136, 0.0
138, 0.0
140, 0.0
142, 0.0
144, 0.0
146, 0.0
148, 0.0
150, 0.0
152, 0.0
154, 0.0
156, 0.0
158, 0.0
160, 0.0
162, 0.0
164, 0.0
166, 0.0
168, 0.0
170, 0.0
172, 0.0
174, 0.0
176, 0.0
178, 0.0
180, 0.0
182, 0.0
184, 0.0
186, 0.0
188, 0.0
190, 0.0
192, 0.0
194, 0.0
196, 0.0
198, 0.0
200.0, 0.981901
202.0, 0.983517
204.0, 0.996018
206.0, 0.991203
208.0, 0.993164
210.0, 0.999132
212.0, 0.990361
214.0, 0.990593
216.0, 0.996265
218.0, 0.991999
220.0, 0.994059
222.0, 0.998507
224.0, 0.988589
226.0, 0.993089
228.0, 0.990514
230.0, 0.986777
232.0, 0.989525
234.0, 0.981626
236.0, 0.982491
238.0, 0.981964
240.0, 0.976682
242.0, 0.978327
244.0, 0.971016
246.0, 0.97109
248.0, 0.977837
250.0, 0.97266
252.0, 0.972751
254.0, 0.965953
256.0, 0.96981
258.0, 0.973702
260.0, 0.965209
262.0, 0.964172
264.0, 0.96182
266.0, 0.958901
268.0, 0.961577
270.0, 0.965052
272.0, 0.962149
274.0, 0.962611
276.0, 0.965856
278.0, 0.960726
280.0, 0.959399
282.0, 0.958595
284.0, 0.950431
286.0, 0.950236
288.0, 0.956402
290.0, 0.952506
292.0, 0.951477
294.0, 0.957206
296.0, 0.960207
298.0, 0.959589
300.0, 0.961439
302.0, 0.968836
304.0, 0.967219
306.0, 0.966905
308.0, 0.963843
310.0, 0.966641
312.0, 0.967382
314.0, 0.974465
316.0, 0.968888
318.0, 0.975593
320.0, 0.973929
322.0, 0.974296
324.0, 0.975694
326.0, 0.971894
328.0, 0.9722
330.0, 0.97667
332.0, 0.97471
334.0, 0.981934
336.0, 0.985152
338.0, 0.985443
340.0, 0.986878
342.0, 0.983469
344.0, 0.984504
346.0, 0.982153
348.0, 0.983471
350.0, 0.986944
352.0, 0.988005
354.0, 0.987059
356.0, 0.993351
358.0, 0.988699
360.0, 0.988527
362.0, 0.983219
364.0, 0.990918
366.0, 0.985073
368.0, 0.98078
370.0, 0.982704
372.0, 0.985784
374.0, 0.980291
376.0, 0.981108
378.0, 0.98022
380.0, 0.977364
382.0, 0.981316
384.0, 0.978277
386.0, 0.978397
388.0, 0.974438
390.0, 0.981383
392.0, 0.972372
394.0, 0.97457
396.0, 0.974316
398.0, 0.972709
400.0, 0.975569
402.0, 0.970958
404.0, 0.970396
406.0, 0.975984
408.0, 0.973645
410.0, 0.979075
412.0, 0.977905
414.0, 0.97989
416.0, 0.977462
418.0, 0.973244
420.0, 0.972247
422.0, 0.973108
424.0, 0.976251
426.0, 0.979003
428.0, 0.981804
430.0, 0.97867
432.0, 0.981777
434.0, 0.983606
436.0, 0.983247
438.0, 0.98374
440.0, 0.986959
442.0, 0.987677
444.0, 0.989081
446.0, 0.987258
448.0, 0.989393
450.0, 0.995018
452.0, 0.988695
454.0, 0.988093
456.0, 0.987272
458.0, 0.98909
460.0, 0.988102
462.0, 0.987861
464.0, 0.981446
466.0, 0.981136
468.0, 0.977637
470.0, 0.979338
472.0, 0.979422
474.0, 0.969004
476.0, 0.968238
478.0, 0.967286
480.0, 0.969423
482.0, 0.967615
484.0, 0.966465
486.0, 0.961895
488.0, 0.9581
490.0, 0.955779
492.0, 0.953881
494.0, 0.955703
496.0, 0.950851
498.0, 0.9458
500.0, 0.945624
502.0, 0.932376
504.0, 0.933576
506.0, 0.928069
508.0, 0.919232
510.0, 0.909832
512.0, 0.903679
514.0, 0.896821
516.0, 0.888308
518.0, 0.880265
520.0, 0.865075
522.0, 0.853013
524.0, 0.848264
526.0, 0.842239
528.0, 0.833623
530.0, 0.822475
532.0, 0.809214
534.0, 0.797548
536.0, 0.784593
538.0, 0.775329
540.0, 0.770068
542.0, 0.759889
544.0, 0.752767
546.0, 0.739636
548.0, 0.731681
550.0, 0.722855
552.0, 0.719814
554.0, 0.714843
556.0, 0.706076
558.0, 0.696781
560.0, 0.69394
562.0, 0.694055
564.0, 0.684961
566.0, 0.682382
568.0, 0.676024
570.0, 0.670753
572.0, 0.666506
574.0, 0.662879
576.0, 0.657287
578.0, 0.651986
580.0, 0.651124
582.0, 0.641825
584.0, 0.637861
586.0, 0.62871
588.0, 0.620905
590.0, 0.616396
592.0, 0.613678
594.0, 0.605718
596.0, 0.598928
598.0, 0.590142
600.0, 0.582126
602.0, 0.57784
604.0, 0.565877
606.0, 0.558759
608.0, 0.555327
610.0, 0.547713
612.0, 0.538967
614.0, 0.534626
616.0, 0.525154
618.0, 0.519073
620.0, 0.513841
622.0, 0.507158
624.0, 0.497549
626.0, 0.495515
628.0, 0.490529
630.0, 0.484632
632.0, 0.479145
634.0, 0.47811
636.0, 0.475506
638.0, 0.472882
640.0, 0.466897
642.0, 0.459298
644.0, 0.454546
646.0, 0.450062
648.0, 0.44397
650.0, 0.44052
652.0, 0.432305
654.0, 0.42969
656.0, 0.424235
658.0, 0.420021
660.0, 0.415204
662.0, 0.411925
664.0, 0.40443
666.0, 0.397034
668.0, 0.394225
670.0, 0.386474
672.0, 0.377698
674.0, 0.377516
676.0, 0.366182
678.0, 0.366007
680.0, 0.359183
682.0, 0.351577
684.0, 0.347974
686.0, 0.341023
688.0, 0.334314
690.0, 0.333816
692.0, 0.319874
694.0, 0.320112
696.0, 0.312468
698.0, 0.313082
700.0, 0.303482
702.0, 0.299382
704.0, 0.294259
706.0, 0.288215
708.0, 0.288465
710.0, 0.279591
712.0, 0.273186
714.0, 0.270634
716.0, 0.269476
718.0, 0.265218
720.0, 0.260353
722.0, 0.259571
724.0, 0.256106
726.0, 0.251512
728.0, 0.250955
730.0, 0.248735
732.0, 0.247155
734.0, 0.241249
736.0, 0.240269
738.0, 0.237651
740.0, 0.235734
742.0, 0.231363
744.0, 0.231594
746.0, 0.227609
748.0, 0.227718
750.0, 0.226059
752.0, 0.223717
754.0, 0.221638
756.0, 0.222964
758.0, 0.221799
760.0, 0.218828
762.0, 0.218289
764.0, 0.215495
766.0, 0.213338
768.0, 0.212207
770.0, 0.210947
772.0, 0.210299
774.0, 0.210006
776.0, 0.208382
778.0, 0.208132
780.0, 0.202996
782.0, 0.198067
784.0, 0.197025
786.0, 0.197054
788.0, 0.195123
790.0, 0.192507
792.0, 0.187537
794.0, 0.186046
796.0, 0.182235
798.0, 0.176399
800.0, 0.173133
802.0, 0.171798
804.0, 0.168028
806.0, 0.165109
808.0, 0.160095
810.0, 0.154203
812.0, 0.155618
814.0, 0.149657
816.0, 0.150014
818.0, 0.144956
820.0, 0.141021
822.0, 0.137534
824.0, 0.135837
826.0, 0.125951
828.0, 0.128562
830.0, 0.123492
832.0, 0.12805
834.0, 0.125538
836.0, 0.128311
838.0, 0.124369
840.0, 0.125649
842.0, 0.130359
844.0, 0.131636
846.0, 0.135067
848.0, 0.135021
850.0, 0.141526
852.0, 0.146398
854.0, 0.156374
856.0, 0.158346
858.0, 0.166488
860.0, 0.168879
862.0, 0.177773
864.0, 0.184722
866.0, 0.19588
868.0, 0.199663
870.0, 0.207389
872.0, 0.217313
874.0, 0.224132
876.0, 0.234365
878.0, 0.23921
880.0, 0.247255
882.0, 0.25514
884.0, 0.265639
886.0, 0.276914
888.0, 0.287341
890.0, 0.294719
892.0, 0.30316
894.0, 0.313885
896.0, 0.324044
898.0, 0.332488
900.0, 0.342584
902.0, 0.351451
904.0, 0.366368
906.0, 0.375599
908.0, 0.38621
910.0, 0.394798
912.0, 0.399566
914.0, 0.413054
916.0, 0.425397
918.0, 0.431534
920.0, 0.436889
922.0, 0.445478
924.0, 0.454913
926.0, 0.462276
928.0, 0.468611
930.0, 0.479267
932.0, 0.483578
934.0, 0.487468
936.0, 0.495008
938.0, 0.499724
940.0, 0.505103
942.0, 0.510906
944.0, 0.518032
946.0, 0.525274
948.0, 0.532004
950.0, 0.53573
952.0, 0.541244
954.0, 0.543186
956.0, 0.553048
958.0, 0.555231
960.0, 0.5606
962.0, 0.564885
964.0, 0.566556
966.0, 0.57875
968.0, 0.582057
970.0, 0.582228
972.0, 0.586788
974.0, 0.587491
976.0, 0.59561
978.0, 0.59966
980.0, 0.605547
982.0, 0.609667
984.0, 0.608772
986.0, 0.613891
988.0, 0.620342
990.0, 0.621104
992.0, 0.627194
994.0, 0.628985
996.0, 0.629379
998.0, 0.630888
1000.0, 0.635801
1002.0, 0.634966
1004.0, 0.639226
1006.0, 0.642977
1008.0, 0.642446
1010.0, 0.643712
1012.0, 0.640731
1014.0, 0.643854
1016.0, 0.63868
1018.0, 0.63825
1020.0, 0.643495
1022.0, 0.642207
1024.0, 0.640519
1026.0, 0.631423
1028.0, 0.635015
1030.0, 0.630243
1032.0, 0.624072
1034.0, 0.62446
1036.0, 0.620694
1038.0, 0.608049
1040.0, 0.602706
1042.0, 0.593206
1044.0, 0.585366
1046.0, 0.574451
1048.0, 0.563743
1050.0, 0.56143
1052.0, 0.547884
1054.0, 0.536852
1056.0, 0.529052
1058.0, 0.515613
1060.0, 0.501837
1062.0, 0.492143
1064.0, 0.47816
1066.0, 0.45972
1068.0, 0.447608
1070.0, 0.436497
1072.0, 0.42342
1074.0, 0.407319
1076.0, 0.395041
1078.0, 0.382524
1080.0, 0.368724
1082.0, 0.355402
1084.0, 0.345074
1086.0, 0.334713
1088.0, 0.319198
1090.0, 0.308482
1092.0, 0.300765
1094.0, 0.28831
1096.0, 0.279351
1098.0, 0.270578
1100.0, 0.264338
1102.0, 0.249874
1104.0, 0.242027
1106.0, 0.23497
1108.0, 0.227861
1110.0, 0.220178
1112.0, 0.209531
1114.0, 0.204733
1116.0, 0.20105
1118.0, 0.192801
1120.0, 0.187945
1122.0, 0.181464
1124.0, 0.174438
1126.0, 0.169172
1128.0, 0.165702
1130.0, 0.15679
1132.0, 0.151198
1134.0, 0.146374
1136.0, 0.14336
1138.0, 0.142838
1140.0, 0.135137
1142.0, 0.135281
1144.0, 0.127726
1146.0, 0.124757
1148.0, 0.122406
1150.0, 0.11784
1152.0, 0.111773
1154.0, 0.110149
1156.0, 0.105102
1158.0, 0.100214
1160.0, 0.0981105
1162.0, 0.0979696
1164.0, 0.0908762
1166.0, 0.0897
1168.0, 0.0848937
1170.0, 0.0827173
1172.0, 0.0805005
1174.0, 0.0814784
1176.0, 0.0783384
1178.0, 0.0715467
1180.0, 0.0705582
1182.0, 0.0676668
1184.0, 0.0635777
1186.0, 0.0665665
1188.0, 0.0611743
1190.0, 0.0592283
1192.0, 0.0551195
1194.0, 0.0497352
1196.0, 0.050771
1198.0, 0.0508228
1200.0, 0.0461229
1202.0, 0.0413502
1204.0, 0.0430013
1206.0, 0.0393214
1208.0, 0.0388535
1210.0, 0.0355133
1212.0, 0.0327996
1214.0, 0.0330581
1216.0, 0.0298958
1218.0, 0.0270124
1220.0, 0.0249805
1222.0, 0.0228685
1224.0, 0.0241659
1226.0, 0.0182678
1228.0, 0.019629
1230.0, 0.0170307
1232.0, 0.0140789
1234.0, 0.0136079
1236.0, 0.0135763
1238.0, 0.00997615
1240.0, 0.0111999
1242.0, 0.00794035
1244.0, 0.0101176
1246.0, 0.0118909
1248.0, 0.00810592
1250.0, 0.00912252
1252.0, 0.00866311
1254.0, 0.00607122
1256.0, 0.00709165
1258.0, 0.00672401
1260.0, 0.00766036
1262.0, 0.00770775
1264.0, 0.00453241
1266.0, 0.00565917
1268.0, 0.00795626
1270.0, 0.00584926
1272.0, 0.00527837
1274.0, 0.00631107
1276.0, 0.00352593
1278.0, 0.00708689
1280.0, 0.00542867
1282.0, 0.00405643
1284.0, 0.0060515
1286.0, 0.00327456
1288.0, 0.00775077
1290.0, 0.00471989
1292.0, 0.00649898
1294.0, 0.00221117
1296.0, 0.00117911
1298.0, 0.00290603
1300.0, 0.00368861
1302.0, 0.00154927
1304, 0.0
1306, 0.0
1308, 0.0
1310, 0.0
1312, 0.0
1314, 0.0
1316, 0.0
1318, 0.0
1320, 0.0
1322, 0.0
1324, 0.0
1326, 0.0
1328, 0.0
1330, 0.0
1332, 0.0
1334, 0.0
1336, 0.0
1338, 0.0
1340, 0.0
1342, 0.0
1344, 0.0
1346, 0.0
1348, 0.0
1350, 0.0
1352, 0.0
1354, 0.0
1356, 0.0
1358, 0.0
1360, 0.0
1362, 0.0
1364, 0.0
1366, 0.0
1368, 0.0
1370, 0.0
1372, 0.0
1374, 0.0
1376, 0.0
1378, 0.0
1380, 0.0
1382, 0.0
1384, 0.0
1386, 0.0
1388, 0.0
1390, 0.0
1392, 0.0
1394, 0.0
1396, 0.0
1398, 0.0
1400, 0.0
1402, 0.0
1404, 0.0
1406, 0.0
1408, 0.0
1410, 0.0
1412, 0.0
1414, 0.0
1416, 0.0
1418, 0.0
1420, 0.0
1422, 0.0
1424, 0.0
1426, 0.0
1428, 0.0
1430, 0.0
1432, 0.0
1434, 0.0
1436, 0.0
1438, 0.0
1440, 0.0
1442, 0.0
1444, 0.0
1446, 0.0
1448, 0.0
1450, 0.0
1452, 0.0
1454, 0.0
1456, 0.0
1458, 0.0
1460, 0.0
1462, 0.0
1464, 0.0
1466, 0.0
1468, 0.0
1470, 0.0
1472, 0.0
1474, 0.0
1476, 0.0
1478, 0.0
1480, 0.0
1482, 0.0
1484, 0.0
1486, 0.0
1488, 0.0
1490, 0.0
1492, 0.0
1494, 0.0
1496, 0.0
1498, 0.0
1500, 0.0
1502, 0.0
1504, 0.0
1506, 0.0
1508, 0.0
1510, 0.0
1512, 0.0
1514, 0.0
1516, 0.0
1518, 0.0
1520, 0.0
1522, 0.0
1524, 0.0
1526, 0.0
1528, 0.0
1530, 0.0
1532, 0.0
1534, 0.0
1536, 0.0
1538, 0.0
1540, 0.0
1542, 0.0
1544, 0.0
1546, 0.0
1548, 0.0
1550, 0.0
1552, 0.0
1554, 0.0
1556, 0.0
1558, 0.0
1560, 0.0
1562, 0.0
1564, 0.0
1566, 0.0
1568, 0.0
1570, 0.0
1572, 0.0
1574, 0.0
1576, 0.0
1578, 0.0
1580, 0.0
1582, 0.0
1584, 0.0
1586, 0.0
1588, 0.0
1590, 0.0
1592, 0.0
1594, 0.0
1596, 0.0
1598, 0.0
1599, 0.0