File: raw data/Dataset_2/Pyroxferroite/Pyroxferroite__R141080__Raman__780__0__unoriented__Raman_Data_Processed__40379.txt
30, 0.0
32, 0.0
34, 0.0
36, 0.0
38, 0.0
40, 0.0
42, 0.0
44, 0.0
46, 0.0
48, 0.0
50, 0.0
52, 0.0
54, 0.0
56, 0.0
58, 0.0
60, 0.0
62, 0.0
64, 0.0
66, 0.0
68, 0.0
70, 0.0
72, 0.0
74, 0.0
76, 0.0
78, 0.0
80, 0.0
82, 0.0
84, 0.0
86, 0.0
88, 0.0
90, 0.0
92, 0.0
94, 0.0
96, 0.0
98, 0.0
100.0, 0.00809018
102.0, 0.00475147
104.0, 0.0137329
106.0, 0.0359024
108.0, 0.00707757
110.0, 0.00770418
112.0, 0.0287405
114.0, 0.0679549
116.0, 0.0898802
118.0, 0.117994
120.0, 0.0995866
122.0, 0.0913
124.0, 0.0879605
126.0, 0.0867352
128.0, 0.0782026
130.0, 0.0699397
132.0, 0.0591298
134.0, 0.0527005
136.0, 0.0484591
138.0, 0.0428131
140.0, 0.0334115
142.0, 0.0206646
144.0, 0.00871458
146.0, 0.00823756
148.0, 0.00287851
150.0, 0.0078333
152.0, 0.00408694
154.0, 0.00881169
156.0, 0.0045541
158.0, 0.00149024
160.0, 0.0178421
162.0, 0.0207883
164.0, 0.0266757
166.0, 0.028052
168.0, 0.0344951
170.0, 0.0323203
172.0, 0.0306946
174.0, 0.0380068
176.0, 0.0395513
178.0, 0.0458636
180.0, 0.048217
182.0, 0.0451029
184.0, 0.0377772
186.0, 0.0285845
188.0, 0.0253786
190.0, 0.0269814
192.0, 0.0268533
194.0, 0.0280397
196.0, 0.028726
198.0, 0.0310921
200.0, 0.0335918
202.0, 0.043979
204.0, 0.0508593
206.0, 0.049316
208.0, 0.046163
210.0, 0.0604638
212.0, 0.0690642
214.0, 0.0873626
216.0, 0.124926
218.0, 0.190628
220.0, 0.307161
222.0, 0.425456
224.0, 0.381082
226.0, 0.216644
228.0, 0.106885
230.0, 0.0669789
232.0, 0.0437595
234.0, 0.0364554
236.0, 0.0347859
238.0, 0.0189889
240.0, 0.0300344
242.0, 0.0346336
244.0, 0.0194684
246.0, 0.0142878
248.0, 0.00355612
250.0, 0.00761342
252.0, 0.00478945
254.0, 0.0100638
256.0, 0.0147314
258.0, 0.00312052
260.0, 0.00263996
262.0, 0.0125252
264.0, 0.018679
266.0, 0.0277152
268.0, 0.0360297
270.0, 0.0345667
272.0, 0.0443521
274.0, 0.0548193
276.0, 0.0771359
278.0, 0.0991965
280.0, 0.144992
282.0, 0.200642
284.0, 0.279254
286.0, 0.376536
288.0, 0.433405
290.0, 0.414154
292.0, 0.346271
294.0, 0.289909
296.0, 0.241109
298.0, 0.188392
300.0, 0.140018
302.0, 0.0983435
304.0, 0.0752044
306.0, 0.056983
308.0, 0.035898
310.0, 0.0259358
312.0, 0.027577
314.0, 0.01301
316.0, 0.0133178
318.0, 0.0107714
320.0, 0.0109842
322.0, 0.00880546
324.0, 0.01972
326.0, 0.0310544
328.0, 0.036775
330.0, 0.0486459
332.0, 0.0594958
334.0, 0.0663225
336.0, 0.0638607
338.0, 0.0727056
340.0, 0.0845187
342.0, 0.0958652
344.0, 0.10337
346.0, 0.104477
348.0, 0.113159
350.0, 0.11006
352.0, 0.10869
354.0, 0.111084
356.0, 0.112245
358.0, 0.11212
360.0, 0.113931
362.0, 0.10879
364.0, 0.108496
366.0, 0.104012
368.0, 0.10401
370.0, 0.0998574
372.0, 0.0869898
374.0, 0.0873218
376.0, 0.0722825
378.0, 0.0751763
380.0, 0.0781561
382.0, 0.0743868
384.0, 0.079688
386.0, 0.0753968
388.0, 0.0743046
390.0, 0.0783723
392.0, 0.0880112
394.0, 0.0896816
396.0, 0.105221
398.0, 0.120505
400.0, 0.139116
402.0, 0.157184
404.0, 0.169543
406.0, 0.167799
408.0, 0.14961
410.0, 0.139619
412.0, 0.109177
414.0, 0.0855865
416.0, 0.0632523
418.0, 0.0497783
420.0, 0.031049
422.0, 0.022857
424.0, 0.0111303
426.0, 0.00664097
428.0, 0.000753617
430.0, 0.00499185
432.0, 0.00295914
434.0, 0.00105996
436.0, 0.00785317
438.0, 0.00548469
440.0, 0.000850886
442.0, 0.00638068
444.0, 0.00500854
446.0, 0.00212693
448.0, 0.001261
450.0, 0.00118833
452.0, 0.00165228
454.0, 0.00324927
456.0, 0.00522408
458.0, 0.00866477
460.0, 0.00846101
462.0, 0.00300171
464.0, 0.00366262
466.0, 0.00382659
468.0, 0.00712019
470.0, 0.0125764
472.0, 0.0178324
474.0, 0.0155521
476.0, 0.0188255
478.0, 0.0179875
480.0, 0.0239787
482.0, 0.0202229
484.0, 0.0373706
486.0, 0.068171
488.0, 0.0638699
490.0, 0.055794
492.0, 0.0525172
494.0, 0.0520279
496.0, 0.0543207
498.0, 0.0525087
500.0, 0.059843
502.0, 0.0613968
504.0, 0.0610522
506.0, 0.06845
508.0, 0.0794928
510.0, 0.0842167
512.0, 0.0894482
514.0, 0.0855998
516.0, 0.0834733
518.0, 0.0807474
520.0, 0.0721216
522.0, 0.0710564
524.0, 0.0742585
526.0, 0.071468
528.0, 0.0671994
530.0, 0.0691754
532.0, 0.0794064
534.0, 0.0901692
536.0, 0.103608
538.0, 0.117553
540.0, 0.121324
542.0, 0.133236
544.0, 0.138793
546.0, 0.140951
548.0, 0.142872
550.0, 0.148839
552.0, 0.149125
554.0, 0.136769
556.0, 0.128096
558.0, 0.125378
560.0, 0.110654
562.0, 0.100111
564.0, 0.0854847
566.0, 0.0730053
568.0, 0.0613593
570.0, 0.0550624
572.0, 0.0436403
574.0, 0.0360246
576.0, 0.0287019
578.0, 0.0279157
580.0, 0.017489
582.0, 0.0159304
584.0, 0.00368059
586.0, 0.000768231
588.0, 0.00490091
590.0, 0.00682435
592.0, 0.00827872
594.0, 0.00748514
596.0, 0.011221
598.0, 0.00489858
600.0, 0.0051947
602.0, 0.00526821
604.0, 0.0152533
606.0, 0.0166236
608.0, 0.0176692
610.0, 0.01311
612.0, 0.00802522
614.0, 0.00397239
616.0, 0.00383599
618.0, 0.000928829
620.0, 0.00614682
622.0, 0.00500236
624.0, 0.0144293
626.0, 0.0153212
628.0, 0.0332331
630.0, 0.0446277
632.0, 0.0657483
634.0, 0.0838298
636.0, 0.0994556
638.0, 0.126985
640.0, 0.159751
642.0, 0.190288
644.0, 0.234511
646.0, 0.28181
648.0, 0.351628
650.0, 0.414758
652.0, 0.484202
654.0, 0.564006
656.0, 0.644106
658.0, 0.722283
660.0, 0.794932
662.0, 0.876362
664.0, 0.935787
666.0, 0.988459
668.0, 0.99068
670.0, 0.958257
672.0, 0.890706
674.0, 0.785153
676.0, 0.685013
678.0, 0.578901
680.0, 0.484115
682.0, 0.391664
684.0, 0.336895
686.0, 0.279164
688.0, 0.235723
690.0, 0.207897
692.0, 0.187732
694.0, 0.172872
696.0, 0.157838
698.0, 0.15206
700.0, 0.135896
702.0, 0.131148
704.0, 0.116715
706.0, 0.110448
708.0, 0.0880809
710.0, 0.079571
712.0, 0.0714854
714.0, 0.0639462
716.0, 0.0491695
718.0, 0.0461227
720.0, 0.046813
722.0, 0.0375057
724.0, 0.0379177
726.0, 0.0307348
728.0, 0.035299
730.0, 0.0256764
732.0, 0.0153303
734.0, 0.0131632
736.0, 0.0142527
738.0, 0.0107274
740.0, 0.0106406
742.0, 0.00786325
744.0, 0.00630318
746.0, 0.00284811
748.0, 0.00245127
750.0, 0.00473739
752.0, 0.00491856
754.0, 0.00636117
756.0, 0.00365922
758.0, 0.000510537
760.0, 0.00629277
762.0, 0.00692848
764.0, 0.00444667
766.0, 0.00319243
768.0, 0.00277721
770.0, 0.00142707
772.0, 0.00118466
774.0, 0.00400859
776.0, 0.00352818
778.0, 0.00264452
780.0, 0.00138577
782.0, 0.00171415
784.0, 0.00508643
786.0, 0.0186014
788.0, 0.00959464
790.0, 0.00658894
792.0, 0.00607635
794.0, 0.00733315
796.0, 0.0107678
798.0, 0.00817259
800.0, 0.0127071
802.0, 0.0147381
804.0, 0.0164762
806.0, 0.0124506
808.0, 0.0133961
810.0, 0.00659118
812.0, 0.00441302
814.0, 0.0257653
816.0, 0.014406
818.0, 0.00969543
820.0, 0.00786012
822.0, 0.00668686
824.0, 0.00479298
826.0, 0.00426276
828.0, 0.00997152
830.0, 0.00644845
832.0, 0.00400751
834.0, 0.00484649
836.0, 0.00745793
838.0, 0.00404788
840.0, 0.00909018
842.0, 0.0121903
844.0, 0.00988353
846.0, 0.0118519
848.0, 0.0103208
850.0, 0.0160149
852.0, 0.0111876
854.0, 0.0131624
856.0, 0.0110205
858.0, 0.0101364
860.0, 0.00681031
862.0, 0.0140664
864.0, 0.00577897
866.0, 0.00801421
868.0, 0.00578255
870.0, 0.00287478
872.0, 0.00530468
874.0, 0.0040551
876.0, 0.00521392
878.0, 0.00362325
880.0, 0.00848155
882.0, 0.00228978
884.0, 0.00584557
886.0, 0.00421389
888.0, 0.0048018
890.0, 0.00294399
892.0, 0.000611992
894.0, 0.00786062
896.0, 0.00711565
898.0, 0.00421722
900.0, 0.00232053
902.0, 0.00157262
904.0, 0.00198881
906.0, 0.00147521
908.0, 0.000726461
910.0, 0.00250826
912.0, 0.00542641
914.0, 0.00919814
916.0, 0.0113872
918.0, 0.0147368
920.0, 0.0104717
922.0, 0.020628
924.0, 0.0232255
926.0, 0.020234
928.0, 0.0326298
930.0, 0.0415191
932.0, 0.0460771
934.0, 0.0521369
936.0, 0.0586494
938.0, 0.0635952
940.0, 0.0688996
942.0, 0.0779121
944.0, 0.0832486
946.0, 0.0896128
948.0, 0.104971
950.0, 0.110922
952.0, 0.123365
954.0, 0.140392
956.0, 0.160158
958.0, 0.184004
960.0, 0.2173
962.0, 0.244138
964.0, 0.288106
966.0, 0.334468
968.0, 0.365287
970.0, 0.395094
972.0, 0.426892
974.0, 0.440648
976.0, 0.458439
978.0, 0.473806
980.0, 0.478803
982.0, 0.48996
984.0, 0.484844
986.0, 0.486827
988.0, 0.479758
990.0, 0.472406
992.0, 0.466439
994.0, 0.443048
996.0, 0.423959
998.0, 0.393921
1000.0, 0.369508
1002.0, 0.331925
1004.0, 0.305445
1006.0, 0.272682
1008.0, 0.250687
1010.0, 0.22028
1012.0, 0.196698
1014.0, 0.180721
1016.0, 0.157779
1018.0, 0.134667
1020.0, 0.107695
1022.0, 0.0895095
1024.0, 0.0788765
1026.0, 0.0553244
1028.0, 0.0485867
1030.0, 0.0441425
1032.0, 0.0312789
1034.0, 0.0279693
1036.0, 0.0244188
1038.0, 0.0177627
1040.0, 0.022298
1042.0, 0.0137106
1044.0, 0.013897
1046.0, 0.00837358
1048.0, 0.0107086
1050.0, 0.00146459
1052.0, 0.00186489
1054.0, 0.0017232
1056.0, 0.00395873
1058.0, 0.0025404
1060.0, 0.000952945
1062.0, 0.000441226
1064.0, 0.00393988
1066.0, 0.00200196
1068.0, 0.00790414
1070.0, 0.00156677
1072.0, 0.00646174
1074.0, 0.00241452
1076.0, 0.00033448
1078.0, 0.00146504
1080.0, 0.0034126
1082.0, 0.00534579
1084.0, 0.00512576
1086.0, 0.00720863
1088.0, 0.00204531
1090.0, 0.0077263
1092.0, 0.00330575
1094.0, 0.00705239
1096.0, 0.00847642
1098.0, 0.00777852
1100.0, 0.0082832
1102.0, 0.0113539
1104.0, 0.0111649
1106.0, 0.0151688
1108.0, 0.0140339
1110.0, 0.00745077
1112.0, 0.01133
1114.0, 0.0122412
1116.0, 0.0113253
1118.0, 0.0126158
1120.0, 0.0103646
1122.0, 0.0107152
1124.0, 0.0056459
1126.0, 0.00873414
1128.0, 0.00516716
1130.0, 0.0046649
1132.0, 0.00248536
1134.0, 0.00550628
1136.0, 0.00288094
1138.0, 0.00591633
1140.0, 0.00973859
1142.0, 0.00752331
1144.0, 0.00952834
1146.0, 0.0041317
1148.0, 0.00489835
1150.0, 0.0168652
1152.0, 0.010912
1154.0, 0.0121699
1156.0, 0.011142
1158.0, 0.00624755
1160.0, 0.00901735
1162.0, 0.00668378
1164.0, 0.00440044
1166.0, 0.0219931
1168.0, 0.00421621
1170.0, 0.012802
1172.0, 0.00960863
1174.0, 0.0141186
1176.0, 0.0135069
1178.0, 0.0148057
1180.0, 0.0106416
1182.0, 0.0113281
1184.0, 0.0125604
1186.0, 0.0112346
1188.0, 0.014081
1190.0, 0.0115288
1192.0, 0.0109693
1194.0, 0.0151186
1196.0, 0.00908995
1198.0, 0.00716366
1200.0, 0.00979516
1202.0, 0.0012735
1204.0, 0.00917207
1206.0, 0.00857929
1208.0, 0.00583451
1210.0, 0.00672321
1212.0, 0.00734313
1214.0, 0.0106807
1216.0, 0.0111107
1218.0, 0.00495231
1220.0, 0.0134067
1222.0, 0.00803614
1224.0, 0.00555176
1226.0, 0.00645229
1228.0, 0.0058251
1230.0, 0.00208845
1232.0, 0.00116569
1234.0, 0.0014329
1236.0, 0.00465297
1238.0, 0.00457292
1240.0, 0.00446953
1242.0, 0.00612396
1244.0, 0.00578966
1246.0, 0.00752703
1248.0, 0.00564846
1250.0, 0.00214976
1252.0, 0.00630685
1254.0, 0.00487938
1256.0, 0.00276094
1258.0, 0.00618853
1260.0, 0.00804688
1262.0, 0.00672767
1264.0, 0.00445028
1266.0, 0.00645054
1268.0, 0.000378505
1270.0, 0.00487818
1272.0, 0.00165737
1274.0, 0.00505705
1276.0, 0.00550285
1278.0, 0.00267012
1280.0, 0.00318553
1282.0, 0.00037819
1284, 0.0
1286, 0.0
1288, 0.0
1290, 0.0
1292, 0.0
1294, 0.0
1296, 0.0
1298, 0.0
1300, 0.0
1302, 0.0
1304, 0.0
1306, 0.0
1308, 0.0
1310, 0.0
1312, 0.0
1314, 0.0
1316, 0.0
1318, 0.0
1320, 0.0
1322, 0.0
1324, 0.0
1326, 0.0
1328, 0.0
1330, 0.0
1332, 0.0
1334, 0.0
1336, 0.0
1338, 0.0
1340, 0.0
1342, 0.0
1344, 0.0
1346, 0.0
1348, 0.0
1350, 0.0
1352, 0.0
1354, 0.0
1356, 0.0
1358, 0.0
1360, 0.0
1362, 0.0
1364, 0.0
1366, 0.0
1368, 0.0
1370, 0.0
1372, 0.0
1374, 0.0
1376, 0.0
1378, 0.0
1380, 0.0
1382, 0.0
1384, 0.0
1386, 0.0
1388, 0.0
1390, 0.0
1392, 0.0
1394, 0.0
1396, 0.0
1398, 0.0
1400, 0.0
1402, 0.0
1404, 0.0
1406, 0.0
1408, 0.0
1410, 0.0
1412, 0.0
1414, 0.0
1416, 0.0
1418, 0.0
1420, 0.0
1422, 0.0
1424, 0.0
1426, 0.0
1428, 0.0
1430, 0.0
1432, 0.0
1434, 0.0
1436, 0.0
1438, 0.0
1440, 0.0
1442, 0.0
1444, 0.0
1446, 0.0
1448, 0.0
1450, 0.0
1452, 0.0
1454, 0.0
1456, 0.0
1458, 0.0
1460, 0.0
1462, 0.0
1464, 0.0
1466, 0.0
1468, 0.0
1470, 0.0
1472, 0.0
1474, 0.0
1476, 0.0
1478, 0.0
1480, 0.0
1482, 0.0
1484, 0.0
1486, 0.0
1488, 0.0
1490, 0.0
1492, 0.0
1494, 0.0
1496, 0.0
1498, 0.0
1500, 0.0
1502, 0.0
1504, 0.0
1506, 0.0
1508, 0.0
1510, 0.0
1512, 0.0
1514, 0.0
1516, 0.0
1518, 0.0
1520, 0.0
1522, 0.0
1524, 0.0
1526, 0.0
1528, 0.0
1530, 0.0
1532, 0.0
1534, 0.0
1536, 0.0
1538, 0.0
1540, 0.0
1542, 0.0
1544, 0.0
1546, 0.0
1548, 0.0
1550, 0.0
1552, 0.0
1554, 0.0
1556, 0.0
1558, 0.0
1560, 0.0
1562, 0.0
1564, 0.0
1566, 0.0
1568, 0.0
1570, 0.0
1572, 0.0
1574, 0.0
1576, 0.0
1578, 0.0
1580, 0.0
1582, 0.0
1584, 0.0
1586, 0.0
1588, 0.0
1590, 0.0
1592, 0.0
1594, 0.0
1596, 0.0
1598, 0.0
1599, 0.0