File: raw data/Dataset_2/Pyroxferroite/Pyroxferroite__R141080__Raman__532__0__unoriented__Raman_Data_Processed__40377.txt
30, 0.0
32, 0.0
34, 0.0
36, 0.0
38, 0.0
40, 0.0
42, 0.0
44, 0.0
46, 0.0
48, 0.0
50, 0.0
52, 0.0
54, 0.0
56, 0.0
58, 0.0
60, 0.0
62, 0.0
64, 0.0
66, 0.0
68, 0.0
70, 0.0
72, 0.0
74, 0.0
76, 0.0
78, 0.0
80, 0.0
82, 0.0
84, 0.0
86, 0.0
88, 0.0
90, 0.0
92, 0.0
94, 0.0
96, 0.0
98, 0.0
100.0, 0.00605294
102.0, 0.00106659
104.0, 0.00341354
106.0, 0.0226969
108.0, 0.0463307
110.0, 0.058663
112.0, 0.0846764
114.0, 0.123282
116.0, 0.165661
118.0, 0.201417
120.0, 0.203202
122.0, 0.200865
124.0, 0.197585
126.0, 0.180169
128.0, 0.183403
130.0, 0.192364
132.0, 0.192523
134.0, 0.192143
136.0, 0.192338
138.0, 0.19302
140.0, 0.183572
142.0, 0.164602
144.0, 0.146144
146.0, 0.137714
148.0, 0.133437
150.0, 0.121656
152.0, 0.121583
154.0, 0.111616
156.0, 0.108038
158.0, 0.0966327
160.0, 0.0956029
162.0, 0.0906539
164.0, 0.0866159
166.0, 0.0872033
168.0, 0.0802791
170.0, 0.0791696
172.0, 0.0756036
174.0, 0.07045
176.0, 0.0704524
178.0, 0.062624
180.0, 0.0579699
182.0, 0.0494072
184.0, 0.0432789
186.0, 0.0420705
188.0, 0.0364246
190.0, 0.029548
192.0, 0.029327
194.0, 0.0300769
196.0, 0.0313323
198.0, 0.028416
200.0, 0.0351427
202.0, 0.0330396
204.0, 0.0309933
206.0, 0.0324251
208.0, 0.0355437
210.0, 0.0391941
212.0, 0.0325271
214.0, 0.0356888
216.0, 0.038955
218.0, 0.0423702
220.0, 0.0478283
222.0, 0.0743696
224.0, 0.106676
226.0, 0.0903992
228.0, 0.0405832
230.0, 0.0217541
232.0, 0.0103061
234.0, 0.00571987
236.0, 0.000722297
238.0, 0.00157059
240.0, 0.00199225
242.0, 0.00346758
244.0, 0.00475212
246.0, 0.000607727
248.0, 0.00212873
250.0, 0.00979093
252.0, 0.007915
254.0, 0.00877312
256.0, 0.00611458
258.0, 0.00821984
260.0, 0.00138178
262.0, 0.00173954
264.0, 0.00186185
266.0, 0.00661571
268.0, 0.00341919
270.0, 0.00781631
272.0, 0.00544987
274.0, 0.00937163
276.0, 0.00788073
278.0, 0.00428565
280.0, 0.00823782
282.0, 0.0130207
284.0, 0.016954
286.0, 0.0325447
288.0, 0.050568
290.0, 0.0602988
292.0, 0.0581026
294.0, 0.0494208
296.0, 0.0496169
298.0, 0.0508899
300.0, 0.0473533
302.0, 0.0475278
304.0, 0.044
306.0, 0.0403508
308.0, 0.0355579
310.0, 0.0330771
312.0, 0.0317131
314.0, 0.031359
316.0, 0.0313785
318.0, 0.0357302
320.0, 0.0383399
322.0, 0.0430178
324.0, 0.0517425
326.0, 0.0596467
328.0, 0.0726876
330.0, 0.079302
332.0, 0.0952511
334.0, 0.111183
336.0, 0.121419
338.0, 0.132728
340.0, 0.141046
342.0, 0.146271
344.0, 0.154852
346.0, 0.151399
348.0, 0.152624
350.0, 0.151067
352.0, 0.148744
354.0, 0.145933
356.0, 0.141698
358.0, 0.13486
360.0, 0.13349
362.0, 0.121696
364.0, 0.115328
366.0, 0.10833
368.0, 0.102504
370.0, 0.0936533
372.0, 0.0877908
374.0, 0.0807933
376.0, 0.081555
378.0, 0.0772813
380.0, 0.0756521
382.0, 0.0765043
384.0, 0.0700133
386.0, 0.0676676
388.0, 0.066335
390.0, 0.0602539
392.0, 0.0585809
394.0, 0.0566261
396.0, 0.0493248
398.0, 0.0467758
400.0, 0.0420298
402.0, 0.0382629
404.0, 0.0366689
406.0, 0.0322132
408.0, 0.0279208
410.0, 0.0212943
412.0, 0.0173352
414.0, 0.0139258
416.0, 0.0104603
418.0, 0.00882061
420.0, 0.00298109
422.0, 0.00188507
424.0, 0.000326085
426.0, 0.000943214
428.0, 0.000629474
430.0, 0.00361308
432.0, 0.00506618
434.0, 0.00736229
436.0, 0.0054694
438.0, 0.00270799
440.0, 0.0140328
442.0, 0.00343234
444.0, 0.00033815
446.0, 0.00279724
448.0, 0.00263347
450.0, 0.00640096
452.0, 0.00569067
454.0, 0.00131396
456.0, 0.000528272
458.0, 0.000875354
460.0, 0.00117014
462.0, 0.00223995
464.0, 0.00152737
466.0, 0.00317909
468.0, 0.00413647
470.0, 0.00860138
472.0, 0.00533273
474.0, 0.00771487
476.0, 0.00937329
478.0, 0.00911622
480.0, 0.00951155
482.0, 0.00758656
484.0, 0.0118052
486.0, 0.0171923
488.0, 0.0194375
490.0, 0.0229198
492.0, 0.024672
494.0, 0.0275856
496.0, 0.0284667
498.0, 0.0354051
500.0, 0.0372585
502.0, 0.0390535
504.0, 0.040627
506.0, 0.0487672
508.0, 0.0547812
510.0, 0.0604
512.0, 0.0726049
514.0, 0.0794698
516.0, 0.0870936
518.0, 0.0947638
520.0, 0.0987603
522.0, 0.105248
524.0, 0.108179
526.0, 0.111316
528.0, 0.116107
530.0, 0.122368
532.0, 0.130328
534.0, 0.13831
536.0, 0.157313
538.0, 0.174333
540.0, 0.191418
542.0, 0.20738
544.0, 0.221062
546.0, 0.231361
548.0, 0.234739
550.0, 0.238793
552.0, 0.235882
554.0, 0.234095
556.0, 0.223819
558.0, 0.213993
560.0, 0.203479
562.0, 0.185472
564.0, 0.171864
566.0, 0.154553
568.0, 0.139681
570.0, 0.124114
572.0, 0.110665
574.0, 0.0948923
576.0, 0.08577
578.0, 0.0754915
580.0, 0.0638187
582.0, 0.0537954
584.0, 0.0442287
586.0, 0.0359031
588.0, 0.0260491
590.0, 0.0208241
592.0, 0.0131
594.0, 0.00740764
596.0, 0.00423488
598.0, 0.00149885
600.0, 0.00379132
602.0, 0.00629676
604.0, 0.00575216
606.0, 0.00653832
608.0, 0.00482158
610.0, 0.0043072
612.0, 0.0051469
614.0, 0.00481789
616.0, 0.00531429
618.0, 0.00307004
620.0, 0.00375279
622.0, 0.0105083
624.0, 0.0246859
626.0, 0.0246747
628.0, 0.0309669
630.0, 0.0397833
632.0, 0.0519713
634.0, 0.0681464
636.0, 0.0837863
638.0, 0.103805
640.0, 0.129192
642.0, 0.158189
644.0, 0.195847
646.0, 0.24116
648.0, 0.297466
650.0, 0.360616
652.0, 0.43976
654.0, 0.513371
656.0, 0.601772
658.0, 0.681296
660.0, 0.758294
662.0, 0.835059
664.0, 0.90416
666.0, 0.962137
668.0, 0.999118
670.0, 0.989249
672.0, 0.926985
674.0, 0.824994
676.0, 0.701276
678.0, 0.572992
680.0, 0.471635
682.0, 0.381397
684.0, 0.309957
686.0, 0.255752
688.0, 0.212403
690.0, 0.18786
692.0, 0.165299
694.0, 0.157656
696.0, 0.148935
698.0, 0.141388
700.0, 0.136656
702.0, 0.129517
704.0, 0.122699
706.0, 0.112554
708.0, 0.101609
710.0, 0.0921585
712.0, 0.0859951
714.0, 0.0764845
716.0, 0.0724124
718.0, 0.0626928
720.0, 0.0575408
722.0, 0.0490893
724.0, 0.0395042
726.0, 0.0317065
728.0, 0.0248773
730.0, 0.0170884
732.0, 0.0135972
734.0, 0.00944286
736.0, 0.00638021
738.0, 0.00860948
740.0, 0.00370575
742.0, 0.00230254
744.0, 0.00251328
746.0, 0.000834868
748.0, 0.000902796
750.0, 0.0012016
752.0, 0.00268248
754.0, 0.00432322
756.0, 0.00154493
758.0, 0.00129448
760.0, 0.00194356
762.0, 0.00625734
764.0, 0.00868378
766.0, 0.00918295
768.0, 0.0115626
770.0, 0.0106084
772.0, 0.0104957
774.0, 0.0103876
776.0, 0.01169
778.0, 0.0118571
780.0, 0.0092564
782.0, 0.0083472
784.0, 0.00930949
786.0, 0.00491565
788.0, 0.00349189
790.0, 0.00231307
792.0, 0.00208412
794.0, 0.000344773
796.0, 0.00106577
798.0, 0.00102632
800.0, 0.00151817
802.0, 0.000468775
804.0, 0.00132052
806.0, 0.000328428
808.0, 0.00100299
810.0, 0.0014604
812.0, 0.00250811
814.0, 0.00173161
816.0, 0.000223979
818.0, 0.000791541
820.0, 0.00187016
822.0, 0.00078142
824.0, 0.000865809
826.0, 0.000543913
828.0, 0.00106829
830.0, 0.000960083
832.0, 0.00307868
834.0, 0.00291329
836.0, 0.00900229
838.0, 0.0113353
840.0, 0.0117704
842.0, 0.0160159
844.0, 0.0197745
846.0, 0.0204879
848.0, 0.0230798
850.0, 0.0224919
852.0, 0.0243662
854.0, 0.0270292
856.0, 0.0272633
858.0, 0.0269098
860.0, 0.0264551
862.0, 0.029807
864.0, 0.0238569
866.0, 0.0220124
868.0, 0.0235448
870.0, 0.0221879
872.0, 0.0201677
874.0, 0.0165767
876.0, 0.014295
878.0, 0.0137187
880.0, 0.00806429
882.0, 0.00827433
884.0, 0.00917649
886.0, 0.0111593
888.0, 0.00319125
890.0, 0.00285993
892.0, 0.00342947
894.0, 0.00908832
896.0, 0.00764321
898.0, 0.0064052
900.0, 0.0105792
902.0, 0.00294255
904.0, 0.00290193
906.0, 0.000610861
908.0, 0.0057387
910.0, 0.00528145
912.0, 0.0132271
914.0, 0.0181822
916.0, 0.0253726
918.0, 0.0308653
920.0, 0.0370856
922.0, 0.0456086
924.0, 0.053139
926.0, 0.0614222
928.0, 0.0688626
930.0, 0.0784226
932.0, 0.0843846
934.0, 0.0906453
936.0, 0.10112
938.0, 0.110055
940.0, 0.119395
942.0, 0.121503
944.0, 0.129478
946.0, 0.134053
948.0, 0.139308
950.0, 0.151813
952.0, 0.163105
954.0, 0.182079
956.0, 0.199838
958.0, 0.226537
960.0, 0.260102
962.0, 0.298669
964.0, 0.351841
966.0, 0.397649
968.0, 0.451785
970.0, 0.51323
972.0, 0.564964
974.0, 0.611492
976.0, 0.638265
978.0, 0.659881
980.0, 0.659273
982.0, 0.672855
984.0, 0.68462
986.0, 0.70302
988.0, 0.720187
990.0, 0.728264
992.0, 0.730012
994.0, 0.716537
996.0, 0.691813
998.0, 0.66429
1000.0, 0.60963
1002.0, 0.556177
1004.0, 0.504034
1006.0, 0.446034
1008.0, 0.399326
1010.0, 0.351257
1012.0, 0.306949
1014.0, 0.269852
1016.0, 0.231133
1018.0, 0.200468
1020.0, 0.168137
1022.0, 0.140194
1024.0, 0.114911
1026.0, 0.0990423
1028.0, 0.0825572
1030.0, 0.0728406
1032.0, 0.0610584
1034.0, 0.0577525
1036.0, 0.0471574
1038.0, 0.0423439
1040.0, 0.0360542
1042.0, 0.0332454
1044.0, 0.0277433
1046.0, 0.0223608
1048.0, 0.0157854
1050.0, 0.0134159
1052.0, 0.0076534
1054.0, 0.00805233
1056.0, 0.00424573
1058.0, 0.003124
1060.0, 0.00101804
1062.0, 0.00378875
1064.0, 0.00483302
1066.0, 0.00468164
1068.0, 0.00601688
1070.0, 0.00662732
1072.0, 0.00571658
1074.0, 0.00623521
1076.0, 0.00423515
1078.0, 0.00199838
1080.0, 0.000484106
1082.0, 0.000653145
1084.0, 0.000496734
1086.0, 0.0023921
1088.0, 0.00653982
1090.0, 0.00656795
1092.0, 0.00723404
1094.0, 0.0117543
1096.0, 0.0122555
1098.0, 0.0175823
1100.0, 0.0220016
1102.0, 0.021595
1104.0, 0.0255948
1106.0, 0.0248207
1108.0, 0.0275977
1110.0, 0.028519
1112.0, 0.0275463
1114.0, 0.0281815
1116.0, 0.0276164
1118.0, 0.0335415
1120.0, 0.0264676
1122.0, 0.0236186
1124.0, 0.0214914
1126.0, 0.0174143
1128.0, 0.0164169
1130.0, 0.0128752
1132.0, 0.0116185
1134.0, 0.0087803
1136.0, 0.00949832
1138.0, 0.00917871
1140.0, 0.00854604
1142.0, 0.00685706
1144.0, 0.0070838
1146.0, 0.00479115
1148.0, 0.00447332
1150.0, 0.00387272
1152.0, 0.00498061
1154.0, 0.00385053
1156.0, 0.00387792
1158.0, 0.00469093
1160.0, 0.00524547
1162.0, 0.0035823
1164.0, 0.00632636
1166.0, 0.0047601
1168.0, 0.00499905
1170.0, 0.00583234
1172.0, 0.00643952
1174.0, 0.00645487
1176.0, 0.00779587
1178.0, 0.00647065
1180.0, 0.00778057
1182.0, 0.00824523
1184.0, 0.00735001
1186.0, 0.00701272
1188.0, 0.00805001
1190.0, 0.00747372
1192.0, 0.0072871
1194.0, 0.00617634
1196.0, 0.00905136
1198.0, 0.00924085
1200.0, 0.00694558
1202.0, 0.00720288
1204.0, 0.00595111
1206.0, 0.00566521
1208.0, 0.00384832
1210.0, 0.00717626
1212.0, 0.00435242
1214.0, 0.00561053
1216.0, 0.00550345
1218.0, 0.00358459
1220.0, 0.00603946
1222.0, 0.00475979
1224.0, 0.00369469
1226.0, 0.00481707
1228.0, 0.000921148
1230.0, 0.0036663
1232.0, 0.00423176
1234.0, 0.00150348
1236.0, 0.00226952
1238.0, 0.00102507
1240.0, 0.0016813
1242.0, 0.00110931
1244.0, 0.00268541
1246.0, 0.00291449
1248.0, 0.00180931
1250.0, 0.00163453
1252.0, 0.00222487
1254.0, 0.000841316
1256.0, 0.00211305
1258.0, 0.00107467
1260.0, 0.00286977
1262.0, 0.00199743
1264.0, 0.00189012
1266.0, 0.0017623
1268.0, 0.000195277
1270.0, 0.000392967
1272.0, 0.000844126
1274.0, 0.00251298
1276.0, 0.000662637
1278.0, 0.000958387
1280.0, 0.000509102
1282.0, 0.000996057
1284.0, 0.00125561
1286.0, 0.000980879
1288.0, 0.00288862
1290.0, 0.000349598
1292.0, 0.00228526
1294.0, 0.00227056
1296.0, 0.000279192
1298.0, 0.00247882
1300.0, 0.000385384
1302, 0.0
1304, 0.0
1306, 0.0
1308, 0.0
1310, 0.0
1312, 0.0
1314, 0.0
1316, 0.0
1318, 0.0
1320, 0.0
1322, 0.0
1324, 0.0
1326, 0.0
1328, 0.0
1330, 0.0
1332, 0.0
1334, 0.0
1336, 0.0
1338, 0.0
1340, 0.0
1342, 0.0
1344, 0.0
1346, 0.0
1348, 0.0
1350, 0.0
1352, 0.0
1354, 0.0
1356, 0.0
1358, 0.0
1360, 0.0
1362, 0.0
1364, 0.0
1366, 0.0
1368, 0.0
1370, 0.0
1372, 0.0
1374, 0.0
1376, 0.0
1378, 0.0
1380, 0.0
1382, 0.0
1384, 0.0
1386, 0.0
1388, 0.0
1390, 0.0
1392, 0.0
1394, 0.0
1396, 0.0
1398, 0.0
1400, 0.0
1402, 0.0
1404, 0.0
1406, 0.0
1408, 0.0
1410, 0.0
1412, 0.0
1414, 0.0
1416, 0.0
1418, 0.0
1420, 0.0
1422, 0.0
1424, 0.0
1426, 0.0
1428, 0.0
1430, 0.0
1432, 0.0
1434, 0.0
1436, 0.0
1438, 0.0
1440, 0.0
1442, 0.0
1444, 0.0
1446, 0.0
1448, 0.0
1450, 0.0
1452, 0.0
1454, 0.0
1456, 0.0
1458, 0.0
1460, 0.0
1462, 0.0
1464, 0.0
1466, 0.0
1468, 0.0
1470, 0.0
1472, 0.0
1474, 0.0
1476, 0.0
1478, 0.0
1480, 0.0
1482, 0.0
1484, 0.0
1486, 0.0
1488, 0.0
1490, 0.0
1492, 0.0
1494, 0.0
1496, 0.0
1498, 0.0
1500, 0.0
1502, 0.0
1504, 0.0
1506, 0.0
1508, 0.0
1510, 0.0
1512, 0.0
1514, 0.0
1516, 0.0
1518, 0.0
1520, 0.0
1522, 0.0
1524, 0.0
1526, 0.0
1528, 0.0
1530, 0.0
1532, 0.0
1534, 0.0
1536, 0.0
1538, 0.0
1540, 0.0
1542, 0.0
1544, 0.0
1546, 0.0
1548, 0.0
1550, 0.0
1552, 0.0
1554, 0.0
1556, 0.0
1558, 0.0
1560, 0.0
1562, 0.0
1564, 0.0
1566, 0.0
1568, 0.0
1570, 0.0
1572, 0.0
1574, 0.0
1576, 0.0
1578, 0.0
1580, 0.0
1582, 0.0
1584, 0.0
1586, 0.0
1588, 0.0
1590, 0.0
1592, 0.0
1594, 0.0
1596, 0.0
1598, 0.0
1599, 0.0