File: raw data/Dataset_2/Nickeltalmessite/Nickeltalmessite__R090023__Raman__532__0__unoriented__Raman_Data_Processed__32116.txt
30, 0.0
32, 0.0
34, 0.0
36, 0.0
38, 0.0
40, 0.0
42, 0.0
44, 0.0
46, 0.0
48, 0.0
50, 0.0
52, 0.0
54, 0.0
56, 0.0
58, 0.0
60, 0.0
62, 0.0
64, 0.0
66, 0.0
68, 0.0
70, 0.0
72, 0.0
74, 0.0
76, 0.0
78, 0.0
80, 0.0
82, 0.0
84, 0.0
86, 0.0
88, 0.0
90, 0.0
92, 0.0
94, 0.0
96, 0.0
98, 0.0
100, 0.0
102, 0.0
104, 0.0
106, 0.0
108, 0.0
110, 0.0
112, 0.0
114, 0.0
116, 0.0
118, 0.0
120, 0.0
122, 0.0
124, 0.0
126, 0.0
128, 0.0
130, 0.0
132, 0.0
134.0, 4.51998e-05
136.0, 0.000188356
138.0, 7.63676e-05
140.0, 0.00170608
142.0, 0.00421732
144.0, 0.0101884
146.0, 0.0126884
148.0, 0.0153125
150.0, 0.0182798
152.0, 0.0212264
154.0, 0.0252297
156.0, 0.0327983
158.0, 0.0451128
160.0, 0.0660477
162.0, 0.0781846
164.0, 0.0586046
166.0, 0.028898
168.0, 0.0190092
170.0, 0.0168414
172.0, 0.0184609
174.0, 0.0233214
176.0, 0.0299493
178.0, 0.0357405
180.0, 0.0394543
182.0, 0.0350373
184.0, 0.031287
186.0, 0.0294515
188.0, 0.034628
190.0, 0.0406602
192.0, 0.0519444
194.0, 0.0699624
196.0, 0.0958562
198.0, 0.11107
200.0, 0.0847148
202.0, 0.041762
204.0, 0.0202989
206.0, 0.0102312
208.0, 0.00784167
210.0, 0.00899313
212.0, 0.0106381
214.0, 0.0118797
216.0, 0.0117461
218.0, 0.00699294
220.0, 0.00157368
222.0, 0.00173989
224.0, 0.00145949
226.0, 0.000386421
228.0, 0.00106237
230.0, 0.00417113
232.0, 0.00992057
234.0, 0.015397
236.0, 0.0229359
238.0, 0.0290219
240.0, 0.0357736
242.0, 0.0386581
244.0, 0.0403992
246.0, 0.0378902
248.0, 0.0390319
250.0, 0.041708
252.0, 0.0467195
254.0, 0.0501937
256.0, 0.0459504
258.0, 0.034085
260.0, 0.0236364
262.0, 0.0185014
264.0, 0.0174478
266.0, 0.0167037
268.0, 0.0189004
270.0, 0.0241382
272.0, 0.0320549
274.0, 0.039392
276.0, 0.0451898
278.0, 0.0435944
280.0, 0.0293455
282.0, 0.0143214
284.0, 0.00394419
286.0, 0.00134479
288.0, 0.00270356
290.0, 0.00269385
292.0, 0.00129539
294.0, 0.00191102
296.0, 0.00315234
298.0, 0.00818779
300.0, 0.0115589
302.0, 0.0197012
304.0, 0.0276848
306.0, 0.0362833
308.0, 0.0408463
310.0, 0.0349957
312.0, 0.0237275
314.0, 0.0139553
316.0, 0.00728844
318.0, 0.00263911
320.0, 0.00118527
322.0, 0.000498655
324.0, 0.00018614
326.0, 0.00119455
328.0, 0.00282641
330.0, 0.00545604
332.0, 0.00853092
334.0, 0.0153419
336.0, 0.023903
338.0, 0.0359801
340.0, 0.050341
342.0, 0.0681751
344.0, 0.0893863
346.0, 0.11479
348.0, 0.143308
350.0, 0.17756
352.0, 0.215022
354.0, 0.248424
356.0, 0.273079
358.0, 0.280609
360.0, 0.270964
362.0, 0.244458
364.0, 0.204188
366.0, 0.15156
368.0, 0.104413
370.0, 0.0733546
372.0, 0.0545891
374.0, 0.0456784
376.0, 0.0413964
378.0, 0.0403727
380.0, 0.0413772
382.0, 0.0457396
384.0, 0.0549304
386.0, 0.0697201
388.0, 0.0883549
390.0, 0.101274
392.0, 0.0937301
394.0, 0.0662229
396.0, 0.0385195
398.0, 0.0204514
400.0, 0.0121719
402.0, 0.0058235
404.0, 0.00265236
406.0, 0.000911734
408.0, 0.000290441
410.0, 0.00106078
412.0, 0.000843282
414.0, 0.000737378
416.0, 0.000719617
418.0, 0.000376574
420.0, 0.00127223
422.0, 0.00217463
424.0, 0.00396759
426.0, 0.00527064
428.0, 0.00820614
430.0, 0.0129555
432.0, 0.017565
434.0, 0.0266057
436.0, 0.034417
438.0, 0.0459377
440.0, 0.0584863
442.0, 0.0771386
444.0, 0.0992218
446.0, 0.126099
448.0, 0.149254
450.0, 0.163117
452.0, 0.167256
454.0, 0.165636
456.0, 0.167341
458.0, 0.172274
460.0, 0.169119
462.0, 0.150439
464.0, 0.12031
466.0, 0.0902057
468.0, 0.0645293
470.0, 0.046068
472.0, 0.0332346
474.0, 0.0244847
476.0, 0.0194782
478.0, 0.0137455
480.0, 0.0115724
482.0, 0.00777491
484.0, 0.00562476
486.0, 0.0043673
488.0, 0.00277644
490.0, 0.00194587
492.0, 0.00235914
494.0, 0.000690467
496.0, 0.000768947
498.0, 0.000174824
500.0, 0.000480449
502.0, 0.000506263
504.0, 3.05198e-05
506.0, 3.65909e-05
508.0, 6.71767e-05
510.0, 0.00104574
512.0, 0.000296835
514.0, 0.000341221
516.0, 4.65118e-05
518.0, 0.000323128
520.0, 0.000379989
522.0, 0.000590314
524.0, 0.000421236
526.0, 0.000384298
528.0, 0.000219709
530.0, 0.00017615
532.0, 2.58899e-05
534.0, 0.000145891
536.0, 0.000921736
538.0, 0.00108147
540.0, 0.000842407
542.0, 0.00100798
544.0, 0.00131916
546.0, 0.00113595
548.0, 0.00088155
550.0, 0.00252953
552.0, 0.00205478
554.0, 0.0019487
556.0, 0.00188441
558.0, 0.00259211
560.0, 0.00175459
562.0, 0.00211734
564.0, 0.00214954
566.0, 0.00277589
568.0, 0.00148794
570.0, 0.00201795
572.0, 0.00209802
574.0, 0.00182655
576.0, 0.00133022
578.0, 0.00151726
580.0, 0.00197092
582.0, 0.00157268
584.0, 0.0016182
586.0, 0.00180726
588.0, 0.00178443
590.0, 0.00223292
592.0, 0.00192181
594.0, 0.00192389
596.0, 0.00262038
598.0, 0.00250128
600.0, 0.00213071
602.0, 0.00209039
604.0, 0.00293753
606.0, 0.0022126
608.0, 0.00256484
610.0, 0.00251164
612.0, 0.00298019
614.0, 0.00285825
616.0, 0.00301775
618.0, 0.00312433
620.0, 0.00377522
622.0, 0.00331449
624.0, 0.00418199
626.0, 0.00362219
628.0, 0.00433549
630.0, 0.00350028
632.0, 0.00427163
634.0, 0.00486026
636.0, 0.00467647
638.0, 0.00491538
640.0, 0.00589266
642.0, 0.00600471
644.0, 0.00583521
646.0, 0.00574509
648.0, 0.00583174
650.0, 0.00568068
652.0, 0.00642481
654.0, 0.00652463
656.0, 0.00691803
658.0, 0.00778344
660.0, 0.00750681
662.0, 0.0076346
664.0, 0.00763161
666.0, 0.00792958
668.0, 0.00943915
670.0, 0.0100424
672.0, 0.0111353
674.0, 0.0104938
676.0, 0.0123475
678.0, 0.0121885
680.0, 0.0126821
682.0, 0.0123236
684.0, 0.0129983
686.0, 0.0124129
688.0, 0.0122751
690.0, 0.0109144
692.0, 0.0103819
694.0, 0.009408
696.0, 0.00982346
698.0, 0.0094674
700.0, 0.00744421
702.0, 0.00698191
704.0, 0.00664925
706.0, 0.00570507
708.0, 0.00540255
710.0, 0.00406893
712.0, 0.00337136
714.0, 0.00296207
716.0, 0.00232406
718.0, 0.00181135
720.0, 0.000910404
722.0, 6.9583e-05
724.0, 0.000712586
726.0, 0.00170752
728.0, 0.00265551
730.0, 0.00237193
732.0, 0.00327453
734.0, 0.00339834
736.0, 0.00333387
738.0, 0.00282667
740.0, 0.00127905
742.0, 0.000921911
744.0, 0.000900586
746.0, 0.000415002
748.0, 0.000871052
750.0, 0.00108146
752.0, 0.000643288
754.0, 0.000179233
756.0, 3.78547e-05
758.0, 0.000402115
760.0, 0.00351339
762.0, 0.00662705
764.0, 0.0127833
766.0, 0.0199257
768.0, 0.0305332
770.0, 0.0399554
772.0, 0.0496669
774.0, 0.0557943
776.0, 0.0560986
778.0, 0.0530785
780.0, 0.048702
782.0, 0.0428332
784.0, 0.0384526
786.0, 0.0365893
788.0, 0.0349444
790.0, 0.0369107
792.0, 0.042832
794.0, 0.0579987
796.0, 0.0800433
798.0, 0.114812
800.0, 0.15821
802.0, 0.210338
804.0, 0.266588
806.0, 0.319116
808.0, 0.356928
810.0, 0.369176
812.0, 0.361401
814.0, 0.337357
816.0, 0.304614
818.0, 0.279168
820.0, 0.279241
822.0, 0.312802
824.0, 0.376351
826.0, 0.460454
828.0, 0.569578
830.0, 0.702721
832.0, 0.855812
834.0, 0.971284
836.0, 0.990218
838.0, 0.857156
840.0, 0.620668
842.0, 0.399085
844.0, 0.25305
846.0, 0.168991
848.0, 0.113459
850.0, 0.0811984
852.0, 0.0601068
854.0, 0.0493669
856.0, 0.0446833
858.0, 0.0453223
860.0, 0.0490838
862.0, 0.064565
864.0, 0.0901573
866.0, 0.130557
868.0, 0.178496
870.0, 0.233841
872.0, 0.310603
874.0, 0.415727
876.0, 0.527836
878.0, 0.589832
880.0, 0.514563
882.0, 0.335359
884.0, 0.188297
886.0, 0.106192
888.0, 0.0627922
890.0, 0.0392677
892.0, 0.0239517
894.0, 0.0148303
896.0, 0.00886346
898.0, 0.00560341
900.0, 0.00302521
902.0, 0.00118467
904.0, 0.000464607
906.0, 0.000580131
908.0, 0.00117394
910.0, 0.00174262
912.0, 0.00289711
914.0, 0.00298285
916.0, 0.0031232
918.0, 0.00279473
920.0, 0.00223795
922.0, 0.00177147
924.0, 0.00187787
926.0, 0.00124346
928.0, 0.00145038
930.0, 0.000474273
932.0, 0.000612581
934.0, 0.00146282
936.0, 0.00194107
938.0, 0.00193765
940.0, 0.00280304
942.0, 0.00435794
944.0, 0.00408738
946.0, 0.00483084
948.0, 0.00577966
950.0, 0.0061316
952.0, 0.00597387
954.0, 0.00751124
956.0, 0.00762432
958.0, 0.00858018
960.0, 0.00837756
962.0, 0.00936232
964.0, 0.00990793
966.0, 0.0100341
968.0, 0.00967653
970.0, 0.0102102
972.0, 0.00948106
974.0, 0.00951704
976.0, 0.00939476
978.0, 0.00904234
980.0, 0.00962774
982.0, 0.00807353
984.0, 0.00885268
986.0, 0.00839324
988.0, 0.00731599
990.0, 0.00749256
992.0, 0.00662959
994.0, 0.0070525
996.0, 0.00680515
998.0, 0.00604515
1000.0, 0.0061466
1002.0, 0.00605992
1004.0, 0.0054353
1006.0, 0.00577702
1008.0, 0.00494729
1010.0, 0.00445111
1012.0, 0.00447154
1014.0, 0.00455441
1016.0, 0.00392986
1018.0, 0.00444674
1020.0, 0.00443863
1022.0, 0.0036515
1024.0, 0.00379605
1026.0, 0.00360099
1028.0, 0.00357448
1030.0, 0.00399512
1032.0, 0.00352704
1034.0, 0.00364432
1036.0, 0.00388312
1038.0, 0.00344235
1040.0, 0.00355063
1042.0, 0.00350059
1044.0, 0.00405704
1046.0, 0.0033233
1048.0, 0.00382142
1050.0, 0.00403356
1052.0, 0.00456468
1054.0, 0.00396248
1056.0, 0.00393508
1058.0, 0.00332484
1060.0, 0.00342955
1062.0, 0.00378413
1064.0, 0.00377064
1066.0, 0.00335758
1068.0, 0.00295347
1070.0, 0.00255042
1072.0, 0.00160529
1074.0, 0.00142295
1076.0, 0.00202785
1078.0, 0.00189518
1080.0, 0.00141727
1082.0, 0.000696956
1084.0, 0.000338207
1086.0, 0.000694758
1088.0, 0.000372718
1090.0, 0.000387858
1092.0, 0.000216711
1094.0, 0.000317553
1096.0, 0.000208828
1098.0, 0.000574348
1100.0, 0.000268819
1102.0, 1.48586e-05
1104.0, 0.000604108
1106.0, 0.000503061
1108.0, 0.000331107
1110.0, 0.000782662
1112.0, 0.000476803
1114.0, 0.000387712
1116.0, 0.000729316
1118.0, 0.000476642
1120.0, 0.00039252
1122.0, 0.000483961
1124.0, 0.00129484
1126.0, 0.000686614
1128.0, 0.000690757
1130.0, 0.000110412
1132.0, 0.000438888
1134.0, 0.000521799
1136.0, 0.000146503
1138.0, 0.000583165
1140.0, 0.000263801
1142.0, 0.000327133
1144.0, 0.000347549
1146.0, 0.000369648
1148.0, 0.000123976
1150.0, 0.000595472
1152.0, 2.50168e-05
1154.0, 0.000187326
1156.0, 0.00152996
1158.0, 0.000247443
1160.0, 0.00105928
1162.0, 0.000365502
1164.0, 0.000976456
1166.0, 7.83235e-05
1168.0, 0.000935062
1170.0, 0.000308837
1172.0, 0.000117033
1174.0, 0.000694505
1176.0, 0.000694929
1178.0, 0.000280702
1180.0, 0.00117722
1182.0, 0.00116633
1184.0, 0.000755359
1186.0, 0.00125683
1188.0, 0.000988195
1190.0, 0.000944817
1192.0, 0.000561988
1194.0, 0.000595688
1196.0, 0.000760508
1198.0, 0.00101294
1200.0, 0.00063268
1202.0, 0.000440685
1204.0, 0.00057597
1206.0, 0.000262461
1208.0, 0.000677041
1210.0, 0.000504024
1212.0, 0.00134124
1214.0, 0.00203972
1216.0, 0.000525055
1218.0, 0.000955395
1220.0, 0.00152765
1222.0, 0.00142532
1224.0, 0.00142443
1226.0, 0.0015299
1228.0, 0.000833113
1230.0, 0.000516714
1232.0, 0.00168774
1234.0, 0.00151239
1236.0, 0.000105958
1238.0, 0.00105237
1240.0, 0.00146205
1242.0, 0.000633557
1244.0, 0.0018054
1246.0, 0.00169155
1248.0, 0.00136451
1250.0, 0.0010607
1252.0, 0.000728737
1254.0, 0.00132812
1256.0, 0.00082113
1258.0, 0.000717887
1260.0, 0.000297514
1262.0, 0.00112003
1264.0, 0.000192264
1266.0, 0.00108279
1268.0, 0.000834723
1270.0, 0.000696743
1272.0, 0.0010348
1274.0, 0.000739707
1276.0, 0.00123205
1278.0, 0.00082644
1280.0, 0.00116504
1282.0, 0.000558072
1284.0, 0.00122042
1286.0, 0.00140694
1288.0, 0.000709992
1290.0, 0.000261946
1292.0, 0.00141646
1294.0, 0.000852288
1296.0, 0.000895657
1298.0, 0.000205347
1300.0, 0.000424259
1302.0, 0.00112514
1304, 0.0
1306, 0.0
1308, 0.0
1310, 0.0
1312, 0.0
1314, 0.0
1316, 0.0
1318, 0.0
1320, 0.0
1322, 0.0
1324, 0.0
1326, 0.0
1328, 0.0
1330, 0.0
1332, 0.0
1334, 0.0
1336, 0.0
1338, 0.0
1340, 0.0
1342, 0.0
1344, 0.0
1346, 0.0
1348, 0.0
1350, 0.0
1352, 0.0
1354, 0.0
1356, 0.0
1358, 0.0
1360, 0.0
1362, 0.0
1364, 0.0
1366, 0.0
1368, 0.0
1370, 0.0
1372, 0.0
1374, 0.0
1376, 0.0
1378, 0.0
1380, 0.0
1382, 0.0
1384, 0.0
1386, 0.0
1388, 0.0
1390, 0.0
1392, 0.0
1394, 0.0
1396, 0.0
1398, 0.0
1400, 0.0
1402, 0.0
1404, 0.0
1406, 0.0
1408, 0.0
1410, 0.0
1412, 0.0
1414, 0.0
1416, 0.0
1418, 0.0
1420, 0.0
1422, 0.0
1424, 0.0
1426, 0.0
1428, 0.0
1430, 0.0
1432, 0.0
1434, 0.0
1436, 0.0
1438, 0.0
1440, 0.0
1442, 0.0
1444, 0.0
1446, 0.0
1448, 0.0
1450, 0.0
1452, 0.0
1454, 0.0
1456, 0.0
1458, 0.0
1460, 0.0
1462, 0.0
1464, 0.0
1466, 0.0
1468, 0.0
1470, 0.0
1472, 0.0
1474, 0.0
1476, 0.0
1478, 0.0
1480, 0.0
1482, 0.0
1484, 0.0
1486, 0.0
1488, 0.0
1490, 0.0
1492, 0.0
1494, 0.0
1496, 0.0
1498, 0.0
1500, 0.0
1502, 0.0
1504, 0.0
1506, 0.0
1508, 0.0
1510, 0.0
1512, 0.0
1514, 0.0
1516, 0.0
1518, 0.0
1520, 0.0
1522, 0.0
1524, 0.0
1526, 0.0
1528, 0.0
1530, 0.0
1532, 0.0
1534, 0.0
1536, 0.0
1538, 0.0
1540, 0.0
1542, 0.0
1544, 0.0
1546, 0.0
1548, 0.0
1550, 0.0
1552, 0.0
1554, 0.0
1556, 0.0
1558, 0.0
1560, 0.0
1562, 0.0
1564, 0.0
1566, 0.0
1568, 0.0
1570, 0.0
1572, 0.0
1574, 0.0
1576, 0.0
1578, 0.0
1580, 0.0
1582, 0.0
1584, 0.0
1586, 0.0
1588, 0.0
1590, 0.0
1592, 0.0
1594, 0.0
1596, 0.0
1598, 0.0
1599, 0.0