File: raw data/Dataset_2/Nickeltalmessite/Nickeltalmessite__R090023__Raman__780__0__unoriented__Raman_Data_Processed__32114.txt
30, 0.0
32, 0.0
34, 0.0
36, 0.0
38, 0.0
40, 0.0
42, 0.0
44, 0.0
46, 0.0
48, 0.0
50, 0.0
52, 0.0
54, 0.0
56, 0.0
58, 0.0
60, 0.0
62, 0.0
64, 0.0
66, 0.0
68, 0.0
70, 0.0
72, 0.0
74, 0.0
76, 0.0
78, 0.0
80, 0.0
82, 0.0
84, 0.0
86, 0.0
88, 0.0
90, 0.0
92, 0.0
94.0, 0.000819796
96.0, 0.00699108
98.0, 0.0286391
100.0, 0.040172
102.0, 0.0432825
104.0, 0.0433277
106.0, 0.0537696
108.0, 0.0717589
110.0, 0.0813084
112.0, 0.0474681
114.0, 0.0308112
116.0, 0.0254441
118.0, 0.0303008
120.0, 0.0335039
122.0, 0.0274737
124.0, 0.00992079
126.0, 0.000825747
128.0, 0.000831356
130.0, 0.00208745
132.0, 0.00303501
134.0, 0.00143286
136.0, 0.00179323
138.0, 0.000699316
140.0, 0.00288845
142.0, 0.00667522
144.0, 0.0102211
146.0, 0.009155
148.0, 0.0150944
150.0, 0.0182073
152.0, 0.0263488
154.0, 0.0332113
156.0, 0.0442067
158.0, 0.0634213
160.0, 0.0827537
162.0, 0.0861903
164.0, 0.0655873
166.0, 0.0440604
168.0, 0.0387868
170.0, 0.040229
172.0, 0.049304
174.0, 0.0597003
176.0, 0.0760775
178.0, 0.0871607
180.0, 0.0823118
182.0, 0.0641062
184.0, 0.0535857
186.0, 0.0543563
188.0, 0.0554185
190.0, 0.062438
192.0, 0.0731499
194.0, 0.0910671
196.0, 0.11618
198.0, 0.120988
200.0, 0.0837038
202.0, 0.0500377
204.0, 0.03161
206.0, 0.026426
208.0, 0.02805
210.0, 0.0295693
212.0, 0.0367286
214.0, 0.0368662
216.0, 0.0308737
218.0, 0.0199572
220.0, 0.0128397
222.0, 0.0103833
224.0, 0.0110338
226.0, 0.0124941
228.0, 0.0128926
230.0, 0.0217992
232.0, 0.0293923
234.0, 0.0413252
236.0, 0.0528382
238.0, 0.0634425
240.0, 0.0687385
242.0, 0.0727431
244.0, 0.0714089
246.0, 0.0726537
248.0, 0.0756239
250.0, 0.0847656
252.0, 0.0910415
254.0, 0.0911088
256.0, 0.0766797
258.0, 0.0577979
260.0, 0.0375858
262.0, 0.0253753
264.0, 0.0206344
266.0, 0.0184579
268.0, 0.0206545
270.0, 0.0267929
272.0, 0.0327988
274.0, 0.0399533
276.0, 0.0397183
278.0, 0.0324483
280.0, 0.0189421
282.0, 0.00366604
284.0, 0.00106002
286.0, 0.00760814
288.0, 0.00565208
290.0, 0.00178164
292.0, 0.000595975
294.0, 0.00194478
296.0, 0.0104067
298.0, 0.0119403
300.0, 0.0201867
302.0, 0.0299188
304.0, 0.0351177
306.0, 0.044971
308.0, 0.0481157
310.0, 0.0375499
312.0, 0.0237566
314.0, 0.0111813
316.0, 0.00456383
318.0, 0.00163122
320.0, 0.00197522
322.0, 0.00122391
324.0, 0.000835071
326.0, 0.00368388
328.0, 0.00819977
330.0, 0.0140118
332.0, 0.0229265
334.0, 0.0357228
336.0, 0.0495463
338.0, 0.0715827
340.0, 0.0953816
342.0, 0.123441
344.0, 0.156478
346.0, 0.187447
348.0, 0.222985
350.0, 0.259966
352.0, 0.29744
354.0, 0.332319
356.0, 0.353381
358.0, 0.367318
360.0, 0.355349
362.0, 0.331225
364.0, 0.270472
366.0, 0.203205
368.0, 0.141491
370.0, 0.102567
372.0, 0.0836546
374.0, 0.0732714
376.0, 0.0665464
378.0, 0.0625391
380.0, 0.0638134
382.0, 0.0702473
384.0, 0.0811661
386.0, 0.0941074
388.0, 0.110367
390.0, 0.120729
392.0, 0.105796
394.0, 0.0718504
396.0, 0.0407297
398.0, 0.0238177
400.0, 0.0139386
402.0, 0.00626551
404.0, 0.000691293
406.0, 0.00030916
408.0, 0.00132382
410.0, 0.000954865
412.0, 2.36207e-05
414.0, 0.00110326
416.0, 0.000931176
418.0, 0.00102806
420.0, 0.00326566
422.0, 0.00343588
424.0, 0.00798953
426.0, 0.0123779
428.0, 0.0176356
430.0, 0.0236672
432.0, 0.0351737
434.0, 0.0458314
436.0, 0.0599296
438.0, 0.0743085
440.0, 0.0913964
442.0, 0.118363
444.0, 0.144662
446.0, 0.171873
448.0, 0.196122
450.0, 0.213494
452.0, 0.207925
454.0, 0.200348
456.0, 0.189471
458.0, 0.190651
460.0, 0.178213
462.0, 0.153178
464.0, 0.122966
466.0, 0.0927243
468.0, 0.0676591
470.0, 0.0497326
472.0, 0.0359282
474.0, 0.0273806
476.0, 0.0196179
478.0, 0.0143429
480.0, 0.0109483
482.0, 0.00941908
484.0, 0.00588806
486.0, 0.00379521
488.0, 0.00288701
490.0, 0.00410139
492.0, 0.00464643
494.0, 0.00161279
496.0, 0.000301871
498.0, 0.000515957
500.0, 0.00106539
502.0, 0.000273842
504.0, 0.00266427
506.0, 0.000462885
508.0, 0.00171567
510.0, 0.00171329
512.0, 0.000455465
514.0, 0.00167962
516.0, 0.00235547
518.0, 0.000639494
520.0, 7.40897e-05
522.0, 0.00219063
524.0, 0.000523928
526.0, 0.00141353
528.0, 0.000997884
530.0, 0.00151652
532.0, 0.00104358
534.0, 0.000260249
536.0, 0.00212809
538.0, 0.00221482
540.0, 0.0020737
542.0, 0.00137453
544.0, 0.00383786
546.0, 0.0023154
548.0, 0.000345826
550.0, 0.00326957
552.0, 0.0027949
554.0, 0.00200728
556.0, 0.00390293
558.0, 0.00408501
560.0, 0.00241928
562.0, 0.00279054
564.0, 0.00275298
566.0, 0.00338382
568.0, 0.00385694
570.0, 0.00153138
572.0, 0.00349606
574.0, 0.00182465
576.0, 0.00098427
578.0, 0.00137482
580.0, 0.00199893
582.0, 0.00196361
584.0, 0.00117047
586.0, 0.00343526
588.0, 0.00309392
590.0, 0.00219095
592.0, 0.00297325
594.0, 0.00210717
596.0, 0.00207908
598.0, 0.00149633
600.0, 0.00032507
602.0, 0.00276208
604.0, 0.0035592
606.0, 0.00276831
608.0, 0.00181905
610.0, 0.00484359
612.0, 0.00289706
614.0, 0.00147954
616.0, 0.00338332
618.0, 0.00276404
620.0, 0.00275356
622.0, 0.00323224
624.0, 0.00400856
626.0, 0.00433915
628.0, 0.00263821
630.0, 0.00375265
632.0, 0.00477075
634.0, 0.00425457
636.0, 0.00438792
638.0, 0.00698743
640.0, 0.00474264
642.0, 0.00532931
644.0, 0.0051185
646.0, 0.00752845
648.0, 0.00566552
650.0, 0.00822684
652.0, 0.00618853
654.0, 0.00598655
656.0, 0.00583608
658.0, 0.0060128
660.0, 0.00793532
662.0, 0.00670299
664.0, 0.00765505
666.0, 0.00858295
668.0, 0.00984555
670.0, 0.00808291
672.0, 0.00896584
674.0, 0.00942069
676.0, 0.0101656
678.0, 0.0124228
680.0, 0.0105965
682.0, 0.0113738
684.0, 0.0104621
686.0, 0.0127911
688.0, 0.0115767
690.0, 0.00877327
692.0, 0.00812403
694.0, 0.00974947
696.0, 0.00887377
698.0, 0.00787082
700.0, 0.00624572
702.0, 0.00556215
704.0, 0.00482843
706.0, 0.0045445
708.0, 0.00438857
710.0, 0.00410705
712.0, 0.00295328
714.0, 0.00395068
716.0, 0.00182743
718.0, 0.00288683
720.0, 0.000963459
722.0, 0.000214665
724.0, 0.000351613
726.0, 0.00302322
728.0, 0.00203318
730.0, 0.00264244
732.0, 0.0015551
734.0, 0.00450954
736.0, 0.00192025
738.0, 0.00346115
740.0, 0.00194767
742.0, 0.00243182
744.0, 0.00217126
746.0, 0.00069137
748.0, 0.00356268
750.0, 0.00312052
752.0, 0.00448398
754.0, 0.00947926
756.0, 0.0124226
758.0, 0.0195897
760.0, 0.0266843
762.0, 0.0376568
764.0, 0.0502568
766.0, 0.063015
768.0, 0.0773994
770.0, 0.0910456
772.0, 0.105992
774.0, 0.112915
776.0, 0.110317
778.0, 0.103989
780.0, 0.0926026
782.0, 0.0884627
784.0, 0.0818076
786.0, 0.0827292
788.0, 0.0867846
790.0, 0.0965483
792.0, 0.115593
794.0, 0.140346
796.0, 0.177326
798.0, 0.223567
800.0, 0.277355
802.0, 0.332898
804.0, 0.390652
806.0, 0.430938
808.0, 0.456605
810.0, 0.452114
812.0, 0.430124
814.0, 0.399852
816.0, 0.364106
818.0, 0.351722
820.0, 0.36672
822.0, 0.418941
824.0, 0.48672
826.0, 0.573846
828.0, 0.670944
830.0, 0.791912
832.0, 0.916153
834.0, 0.992875
836.0, 0.967465
838.0, 0.804758
840.0, 0.562183
842.0, 0.359486
844.0, 0.228627
846.0, 0.145996
848.0, 0.0999554
850.0, 0.0712323
852.0, 0.0495629
854.0, 0.0370919
856.0, 0.0322048
858.0, 0.0299505
860.0, 0.0364638
862.0, 0.0474478
864.0, 0.0691495
866.0, 0.097516
868.0, 0.124641
870.0, 0.154531
872.0, 0.192048
874.0, 0.247598
876.0, 0.299884
878.0, 0.325309
880.0, 0.264731
882.0, 0.163494
884.0, 0.0883096
886.0, 0.0453254
888.0, 0.0237847
890.0, 0.0122856
892.0, 0.00561261
894.0, 0.00387098
896.0, 0.000660129
898.0, 0.00258568
900.0, 0.00284522
902.0, 0.000424183
904.0, 0.00305616
906.0, 0.00327928
908.0, 0.00201293
910.0, 0.00373779
912.0, 0.00233069
914.0, 0.00302218
916.0, 0.00272831
918.0, 0.000205276
920.0, 0.00181496
922.0, 9.29436e-05
924.0, 0.000467737
926.0, 0.00104291
928.0, 0.00270412
930.0, 0.00141285
932.0, 0.00263778
934.0, 0.00456853
936.0, 0.00234174
938.0, 0.00731157
940.0, 0.00610854
942.0, 0.00650104
944.0, 0.0077026
946.0, 0.00659233
948.0, 0.00901337
950.0, 0.00935069
952.0, 0.00912543
954.0, 0.010773
956.0, 0.0110241
958.0, 0.0102909
960.0, 0.0106556
962.0, 0.00972513
964.0, 0.0097147
966.0, 0.0105812
968.0, 0.00917342
970.0, 0.0102195
972.0, 0.0102265
974.0, 0.00779283
976.0, 0.0091074
978.0, 0.00853412
980.0, 0.00862634
982.0, 0.0075224
984.0, 0.00649095
986.0, 0.00853987
988.0, 0.00798189
990.0, 0.00467162
992.0, 0.00749997
994.0, 0.00670846
996.0, 0.00383495
998.0, 0.00688143
1000.0, 0.00514376
1002.0, 0.00519441
1004.0, 0.00466053
1006.0, 0.00424564
1008.0, 0.00660807
1010.0, 0.00528983
1012.0, 0.00508473
1014.0, 0.00464834
1016.0, 0.00324966
1018.0, 0.00323156
1020.0, 0.00581818
1022.0, 0.00127739
1024.0, 0.00188915
1026.0, 0.00325197
1028.0, 0.00323556
1030.0, 0.0046898
1032.0, 0.00283203
1034.0, 0.00235883
1036.0, 0.00251997
1038.0, 0.00415892
1040.0, 0.00377784
1042.0, 0.00434167
1044.0, 0.00310387
1046.0, 0.00490453
1048.0, 0.00149257
1050.0, 0.00433425
1052.0, 0.00472004
1054.0, 0.00414719
1056.0, 0.00436856
1058.0, 0.00408391
1060.0, 0.00517132
1062.0, 0.00242437
1064.0, 0.00224043
1066.0, 0.00242775
1068.0, 0.0028235
1070.0, 0.00295905
1072.0, 0.00343491
1074.0, 0.00211376
1076.0, 0.00285942
1078.0, 0.00240413
1080.0, 0.00119617
1082.0, 0.0011387
1084.0, 0.000845763
1086.0, 0.00225047
1088.0, 0.00116853
1090.0, 0.00214551
1092.0, 0.00168025
1094.0, 0.00218696
1096.0, 0.000537673
1098.0, 0.000713935
1100.0, 0.00113208
1102.0, 0.00106201
1104.0, 0.00103002
1106.0, 0.000792069
1108.0, 0.000865084
1110.0, 0.00196429
1112.0, 0.00189703
1114.0, 0.0040182
1116.0, 0.00257565
1118.0, 0.00208961
1120.0, 0.000360648
1122.0, 0.00345591
1124.0, 0.000191171
1126.0, 0.00280556
1128.0, 0.000564506
1130.0, 0.000742292
1132.0, 0.00204402
1134.0, 0.00300594
1136.0, 0.00185856
1138.0, 0.00136808
1140.0, 0.00204859
1142.0, 0.000481971
1144.0, 0.00154802
1146.0, 0.000766179
1148.0, 0.00353771
1150.0, 6.23211e-05
1152.0, 0.000551973
1154.0, 0.000875244
1156.0, 0.00206059
1158.0, 0.00138711
1160.0, 0.00103461
1162.0, 0.00160689
1164.0, 0.000958821
1166.0, 0.00240784
1168.0, 0.000690757
1170.0, 0.00311731
1172.0, 0.00168968
1174.0, 0.00325899
1176.0, 0.00241412
1178.0, 0.000116134
1180.0, 0.00113258
1182.0, 0.000739578
1184.0, 0.000932698
1186.0, 0.000248999
1188.0, 0.00198265
1190.0, 0.00335514
1192.0, 0.00117209
1194.0, 0.00181801
1196.0, 0.0018299
1198.0, 0.00287897
1200.0, 0.00165889
1202.0, 0.00025806
1204.0, 0.00274973
1206.0, 0.000376155
1208.0, 0.00179577
1210.0, 0.00152385
1212.0, 0.00320937
1214.0, 0.00242445
1216.0, 0.00106657
1218.0, 0.00146377
1220.0, 0.00178225
1222.0, 0.00215495
1224.0, 0.00178971
1226.0, 0.000662805
1228.0, 0.00124025
1230.0, 0.00159211
1232.0, 0.00234978
1234.0, 0.00146411
1236.0, 0.00266278
1238.0, 0.00176632
1240.0, 0.0031174
1242.0, 0.00131298
1244.0, 0.00103707
1246.0, 0.00103985
1248.0, 0.00286847
1250.0, 0.0015022
1252.0, 0.000638311
1254.0, 0.00150472
1256.0, 0.00275569
1258.0, 0.00197137
1260.0, 0.00265246
1262.0, 0.0014309
1264.0, 0.00295785
1266.0, 0.00198714
1268.0, 0.00457152
1270.0, 0.000664582
1272.0, 0.00111161
1274.0, 0.00116783
1276.0, 0.00151171
1278.0, 0.00125583
1280.0, 0.00118881
1282.0, 0.00147435
1284.0, 0.00187144
1286.0, 1.88075e-06
1288, 0.0
1290, 0.0
1292, 0.0
1294, 0.0
1296, 0.0
1298, 0.0
1300, 0.0
1302, 0.0
1304, 0.0
1306, 0.0
1308, 0.0
1310, 0.0
1312, 0.0
1314, 0.0
1316, 0.0
1318, 0.0
1320, 0.0
1322, 0.0
1324, 0.0
1326, 0.0
1328, 0.0
1330, 0.0
1332, 0.0
1334, 0.0
1336, 0.0
1338, 0.0
1340, 0.0
1342, 0.0
1344, 0.0
1346, 0.0
1348, 0.0
1350, 0.0
1352, 0.0
1354, 0.0
1356, 0.0
1358, 0.0
1360, 0.0
1362, 0.0
1364, 0.0
1366, 0.0
1368, 0.0
1370, 0.0
1372, 0.0
1374, 0.0
1376, 0.0
1378, 0.0
1380, 0.0
1382, 0.0
1384, 0.0
1386, 0.0
1388, 0.0
1390, 0.0
1392, 0.0
1394, 0.0
1396, 0.0
1398, 0.0
1400, 0.0
1402, 0.0
1404, 0.0
1406, 0.0
1408, 0.0
1410, 0.0
1412, 0.0
1414, 0.0
1416, 0.0
1418, 0.0
1420, 0.0
1422, 0.0
1424, 0.0
1426, 0.0
1428, 0.0
1430, 0.0
1432, 0.0
1434, 0.0
1436, 0.0
1438, 0.0
1440, 0.0
1442, 0.0
1444, 0.0
1446, 0.0
1448, 0.0
1450, 0.0
1452, 0.0
1454, 0.0
1456, 0.0
1458, 0.0
1460, 0.0
1462, 0.0
1464, 0.0
1466, 0.0
1468, 0.0
1470, 0.0
1472, 0.0
1474, 0.0
1476, 0.0
1478, 0.0
1480, 0.0
1482, 0.0
1484, 0.0
1486, 0.0
1488, 0.0
1490, 0.0
1492, 0.0
1494, 0.0
1496, 0.0
1498, 0.0
1500, 0.0
1502, 0.0
1504, 0.0
1506, 0.0
1508, 0.0
1510, 0.0
1512, 0.0
1514, 0.0
1516, 0.0
1518, 0.0
1520, 0.0
1522, 0.0
1524, 0.0
1526, 0.0
1528, 0.0
1530, 0.0
1532, 0.0
1534, 0.0
1536, 0.0
1538, 0.0
1540, 0.0
1542, 0.0
1544, 0.0
1546, 0.0
1548, 0.0
1550, 0.0
1552, 0.0
1554, 0.0
1556, 0.0
1558, 0.0
1560, 0.0
1562, 0.0
1564, 0.0
1566, 0.0
1568, 0.0
1570, 0.0
1572, 0.0
1574, 0.0
1576, 0.0
1578, 0.0
1580, 0.0
1582, 0.0
1584, 0.0
1586, 0.0
1588, 0.0
1590, 0.0
1592, 0.0
1594, 0.0
1596, 0.0
1598, 0.0
1599, 0.0