File: raw data/Dataset_2/GlassSm/GlassSm__R110078__Raman__532__0__unoriented__Raman_Data_Processed__35491.txt
30, 0.0
32, 0.0
34, 0.0
36, 0.0
38, 0.0
40, 0.0
42, 0.0
44, 0.0
46, 0.0
48, 0.0
50, 0.0
52, 0.0
54, 0.0
56, 0.0
58, 0.0
60, 0.0
62, 0.0
64, 0.0
66, 0.0
68, 0.0
70, 0.0
72, 0.0
74, 0.0
76, 0.0
78, 0.0
80, 0.0
82, 0.0
84, 0.0
86, 0.0
88, 0.0
90, 0.0
92, 0.0
94, 0.0
96, 0.0
98, 0.0
100, 0.0
102, 0.0
104, 0.0
106, 0.0
108, 0.0
110, 0.0
112, 0.0
114, 0.0
116, 0.0
118, 0.0
120, 0.0
122, 0.0
124, 0.0
126, 0.0
128, 0.0
130, 0.0
132, 0.0
134, 0.0
136, 0.0
138, 0.0
140, 0.0
142, 0.0
144, 0.0
146, 0.0
148, 0.0
150, 0.0
152, 0.0
154, 0.0
156, 0.0
158, 0.0
160, 0.0
162, 0.0
164, 0.0
166, 0.0
168, 0.0
170, 0.0
172, 0.0
174, 0.0
176, 0.0
178, 0.0
180, 0.0
182, 0.0
184, 0.0
186, 0.0
188.0, 0.00435127
190.0, 0.00597582
192.0, 0.00223097
194.0, 0.00522899
196.0, 0.00482165
198.0, 0.0054738
200.0, 0.00672831
202.0, 0.00726422
204.0, 0.00596857
206.0, 0.00578019
208.0, 0.00286336
210.0, 0.00637655
212.0, 0.00456913
214.0, 0.00598809
216.0, 0.00638376
218.0, 0.00479567
220.0, 0.00421175
222.0, 0.0053864
224.0, 0.00516447
226.0, 0.00392635
228.0, 0.00623489
230.0, 0.00358671
232.0, 0.00467366
234.0, 0.00393657
236.0, 0.00496602
238.0, 0.00357888
240.0, 0.00441015
242.0, 0.00365716
244.0, 0.0046452
246.0, 0.00350296
248.0, 0.00383799
250.0, 0.00444669
252.0, 0.00386084
254.0, 0.0034242
256.0, 0.00358181
258.0, 0.0030429
260.0, 0.00368417
262.0, 0.0019266
264.0, 0.00349608
266.0, 0.00211988
268.0, 0.00317136
270.0, 0.00210195
272.0, 0.00285589
274.0, 0.00240786
276.0, 0.00457015
278.0, 0.00412612
280.0, 0.00320276
282.0, 0.00188959
284.0, 0.00213121
286.0, 0.00105471
288.0, 0.000465012
290.0, 0.000949454
292.0, 0.000219546
294.0, 0.00211977
296.0, 0.00132578
298.0, 0.00206899
300.0, 0.00250884
302.0, 0.00332682
304.0, 0.00192685
306.0, 0.00373465
308.0, 0.0039815
310.0, 0.00207158
312.0, 0.00199523
314.0, 0.00314277
316.0, 0.00211665
318.0, 0.00311166
320.0, 0.00212415
322.0, 0.00236849
324.0, 0.00221929
326.0, 0.00183753
328.0, 0.00214837
330.0, 0.00399802
332.0, 0.00296202
334.0, 0.00277166
336.0, 0.00235099
338.0, 0.00451025
340.0, 0.00232708
342.0, 0.00334426
344.0, 0.00409909
346.0, 0.0035442
348.0, 0.0021886
350.0, 0.00238796
352.0, 0.00445966
354.0, 0.00477187
356.0, 0.00477187
358.0, 0.0047268
360.0, 0.00177473
362.0, 0.0040593
364.0, 0.00343248
366.0, 0.0040838
368.0, 0.0039737
370.0, 0.00463708
372.0, 0.00418143
374.0, 0.00333614
376.0, 0.0035971
378.0, 0.00396014
380.0, 0.00315168
382.0, 0.00462483
384.0, 0.00231698
386.0, 0.0022995
388.0, 0.00403283
390.0, 0.00303653
392.0, 0.00302658
394.0, 0.0034883
396.0, 0.00330102
398.0, 0.00318874
400.0, 0.0044288
402.0, 0.0035299
404.0, 0.00331768
406.0, 0.0042772
408.0, 0.00351915
410.0, 0.00447575
412.0, 0.00471933
414.0, 0.00544669
416.0, 0.00223012
418.0, 0.00400855
420.0, 0.00390715
422.0, 0.00366669
424.0, 0.00344946
426.0, 0.00362846
428.0, 0.00434894
430.0, 0.00437962
432.0, 0.00435552
434.0, 0.00334066
436.0, 0.00545932
438.0, 0.00411964
440.0, 0.00435398
442.0, 0.00571028
444.0, 0.0045203
446.0, 0.00565006
448.0, 0.00657686
450.0, 0.00586963
452.0, 0.00438852
454.0, 0.00648854
456.0, 0.00547494
458.0, 0.00485538
460.0, 0.00590646
462.0, 0.00546967
464.0, 0.00602015
466.0, 0.00575656
468.0, 0.00588988
470.0, 0.00629901
472.0, 0.00629335
474.0, 0.00674952
476.0, 0.00592097
478.0, 0.0065669
480.0, 0.00714119
482.0, 0.00705
484.0, 0.0074712
486.0, 0.00874902
488.0, 0.00706782
490.0, 0.0090704
492.0, 0.00717964
494.0, 0.00726539
496.0, 0.00733302
498.0, 0.0067517
500.0, 0.00745483
502.0, 0.00806533
504.0, 0.00748956
506.0, 0.00658109
508.0, 0.00728419
510.0, 0.00675414
512.0, 0.00672333
514.0, 0.007091
516.0, 0.00598313
518.0, 0.00652918
520.0, 0.00590253
522.0, 0.00755406
524.0, 0.00669038
526.0, 0.00633028
528.0, 0.00620889
530.0, 0.00597806
532.0, 0.00489594
534.0, 0.00544343
536.0, 0.00339272
538.0, 0.0046591
540.0, 0.00396437
542.0, 0.00403593
544.0, 0.00404062
546.0, 0.00517671
548.0, 0.00324337
550.0, 0.00403087
552.0, 0.00242017
554.0, 0.00324224
556.0, 0.00295381
558.0, 0.00361156
560.0, 0.00399323
562.0, 0.00383799
564.0, 0.0036139
566.0, 0.00431178
568.0, 0.00292749
570.0, 0.00337406
572.0, 0.00236317
574.0, 0.00314045
576.0, 0.00368102
578.0, 0.00371759
580.0, 0.00261824
582.0, 0.00416544
584.0, 0.00355468
586.0, 0.0022051
588.0, 0.00129244
590.0, 0.00245053
592.0, 0.00416588
594.0, 0.0020606
596.0, 0.0023286
598.0, 0.00230659
600.0, 0.00280621
602.0, 0.00240013
604.0, 0.00138741
606.0, 0.00179907
608.0, 0.00177248
610.0, 0.00293389
612.0, 0.00061786
614.0, 0.00242441
616.0, 0.00261231
618.0, 0.00281111
620.0, 0.00276459
622.0, 0.00410577
624.0, 0.00356319
626.0, 0.00312981
628.0, 0.00368917
630.0, 0.0055191
632.0, 0.00614419
634.0, 0.00636817
636.0, 0.00610591
638.0, 0.00666189
640.0, 0.00879493
642.0, 0.00883331
644.0, 0.00919846
646.0, 0.0108908
648.0, 0.00899786
650.0, 0.0110669
652.0, 0.011758
654.0, 0.012263
656.0, 0.0131781
658.0, 0.0143441
660.0, 0.0141814
662.0, 0.0163084
664.0, 0.0145375
666.0, 0.0165156
668.0, 0.0172314
670.0, 0.0168212
672.0, 0.0171852
674.0, 0.0198703
676.0, 0.018587
678.0, 0.0193865
680.0, 0.0219722
682.0, 0.0207693
684.0, 0.022093
686.0, 0.0215957
688.0, 0.0213607
690.0, 0.0234108
692.0, 0.0255566
694.0, 0.0248461
696.0, 0.0262218
698.0, 0.027141
700.0, 0.0265131
702.0, 0.027617
704.0, 0.0286324
706.0, 0.0293057
708.0, 0.02932
710.0, 0.0303241
712.0, 0.0318419
714.0, 0.0329902
716.0, 0.032838
718.0, 0.0337827
720.0, 0.0351887
722.0, 0.0351577
724.0, 0.0369341
726.0, 0.0382165
728.0, 0.0388733
730.0, 0.0410892
732.0, 0.0418615
734.0, 0.0419852
736.0, 0.0424844
738.0, 0.044723
740.0, 0.0454654
742.0, 0.0464225
744.0, 0.0470477
746.0, 0.0470674
748.0, 0.0478831
750.0, 0.0493681
752.0, 0.0500579
754.0, 0.0515926
756.0, 0.0531903
758.0, 0.0557426
760.0, 0.0548991
762.0, 0.0542751
764.0, 0.0565555
766.0, 0.0569098
768.0, 0.0587846
770.0, 0.0590009
772.0, 0.0610739
774.0, 0.0603903
776.0, 0.0607972
778.0, 0.0626733
780.0, 0.0641625
782.0, 0.0636994
784.0, 0.0653805
786.0, 0.0660539
788.0, 0.0668709
790.0, 0.066513
792.0, 0.0682757
794.0, 0.0686195
796.0, 0.0704969
798.0, 0.0711794
800.0, 0.0712337
802.0, 0.0714745
804.0, 0.0713841
806.0, 0.0735862
808.0, 0.0737277
810.0, 0.074844
812.0, 0.0765178
814.0, 0.0772532
816.0, 0.0784529
818.0, 0.0800176
820.0, 0.0797689
822.0, 0.0825717
824.0, 0.083362
826.0, 0.0843396
828.0, 0.0842166
830.0, 0.0867042
832.0, 0.0884607
834.0, 0.0888985
836.0, 0.0924114
838.0, 0.0931317
840.0, 0.0953096
842.0, 0.0986566
844.0, 0.0993458
846.0, 0.102531
848.0, 0.102439
850.0, 0.10457
852.0, 0.10919
854.0, 0.111022
856.0, 0.113913
858.0, 0.115166
860.0, 0.119189
862.0, 0.123108
864.0, 0.123616
866.0, 0.125696
868.0, 0.128163
870.0, 0.133087
872.0, 0.13493
874.0, 0.139069
876.0, 0.142376
878.0, 0.146373
880.0, 0.147056
882.0, 0.15131
884.0, 0.154722
886.0, 0.15904
888.0, 0.163679
890.0, 0.1669
892.0, 0.17022
894.0, 0.172608
896.0, 0.178018
898.0, 0.180567
900.0, 0.18456
902.0, 0.188733
904.0, 0.193888
906.0, 0.197039
908.0, 0.201989
910.0, 0.207366
912.0, 0.210258
914.0, 0.21584
916.0, 0.22126
918.0, 0.224055
920.0, 0.233175
922.0, 0.235496
924.0, 0.241461
926.0, 0.247414
928.0, 0.251781
930.0, 0.258051
932.0, 0.263027
934.0, 0.269288
936.0, 0.273594
938.0, 0.281931
940.0, 0.28848
942.0, 0.296842
944.0, 0.302687
946.0, 0.314671
948.0, 0.32562
950.0, 0.333523
952.0, 0.343089
954.0, 0.355354
956.0, 0.363977
958.0, 0.376721
960.0, 0.387874
962.0, 0.400908
964.0, 0.414223
966.0, 0.430098
968.0, 0.444034
970.0, 0.457457
972.0, 0.47348
974.0, 0.489582
976.0, 0.506086
978.0, 0.524079
980.0, 0.542034
982.0, 0.560183
984.0, 0.579482
986.0, 0.598055
988.0, 0.618741
990.0, 0.639414
992.0, 0.659728
994.0, 0.67793
996.0, 0.698942
998.0, 0.720353
1000.0, 0.737048
1002.0, 0.758999
1004.0, 0.777786
1006.0, 0.795526
1008.0, 0.817078
1010.0, 0.835504
1012.0, 0.85231
1014.0, 0.866897
1016.0, 0.883994
1018.0, 0.899078
1020.0, 0.918107
1022.0, 0.932658
1024.0, 0.942229
1026.0, 0.953211
1028.0, 0.962926
1030.0, 0.970896
1032.0, 0.979001
1034.0, 0.987312
1036.0, 0.995072
1038.0, 0.997404
1040.0, 0.993566
1042.0, 0.999773
1044.0, 0.99939
1046.0, 0.996145
1048.0, 0.997739
1050.0, 0.99632
1052.0, 0.991364
1054.0, 0.991039
1056.0, 0.982647
1058.0, 0.978724
1060.0, 0.970003
1062.0, 0.960121
1064.0, 0.950085
1066.0, 0.938389
1068.0, 0.926781
1070.0, 0.917033
1072.0, 0.904712
1074.0, 0.889286
1076.0, 0.879313
1078.0, 0.864533
1080.0, 0.853758
1082.0, 0.839983
1084.0, 0.826472
1086.0, 0.813891
1088.0, 0.792294
1090.0, 0.78198
1092.0, 0.768421
1094.0, 0.754047
1096.0, 0.740013
1098.0, 0.726408
1100.0, 0.71357
1102.0, 0.697957
1104.0, 0.682157
1106.0, 0.670142
1108.0, 0.653875
1110.0, 0.644485
1112.0, 0.633063
1114.0, 0.619633
1116.0, 0.604884
1118.0, 0.592909
1120.0, 0.581289
1122.0, 0.571465
1124.0, 0.561854
1126.0, 0.548498
1128.0, 0.540321
1130.0, 0.528265
1132.0, 0.519459
1134.0, 0.510929
1136.0, 0.505639
1138.0, 0.499552
1140.0, 0.491758
1142.0, 0.483291
1144.0, 0.475317
1146.0, 0.473265
1148.0, 0.465378
1150.0, 0.462043
1152.0, 0.457788
1154.0, 0.451224
1156.0, 0.446865
1158.0, 0.44438
1160.0, 0.439851
1162.0, 0.43819
1164.0, 0.435561
1166.0, 0.431878
1168.0, 0.430845
1170.0, 0.428875
1172.0, 0.430474
1174.0, 0.425983
1176.0, 0.426273
1178.0, 0.425041
1180.0, 0.422882
1182.0, 0.426729
1184.0, 0.421423
1186.0, 0.425672
1188.0, 0.423299
1190.0, 0.424446
1192.0, 0.426104
1194.0, 0.427157
1196.0, 0.425628
1198.0, 0.429623
1200.0, 0.429658
1202.0, 0.428744
1204.0, 0.431269
1206.0, 0.434607
1208.0, 0.432757
1210.0, 0.438485
1212.0, 0.437836
1214.0, 0.438725
1216.0, 0.438375
1218.0, 0.436134
1220.0, 0.4372
1222.0, 0.439813
1224.0, 0.442561
1226.0, 0.443004
1228.0, 0.442245
1230.0, 0.444575
1232.0, 0.444398
1234.0, 0.444891
1236.0, 0.442889
1238.0, 0.443581
1240.0, 0.444942
1242.0, 0.444659
1244.0, 0.444762
1246.0, 0.443032
1248.0, 0.442635
1250.0, 0.442123
1252.0, 0.442191
1254.0, 0.440727
1256.0, 0.440691
1258.0, 0.439239
1260.0, 0.436882
1262.0, 0.43499
1264.0, 0.435708
1266.0, 0.430221
1268.0, 0.428945
1270.0, 0.427058
1272.0, 0.423901
1274.0, 0.421989
1276.0, 0.421773
1278.0, 0.415327
1280.0, 0.413814
1282.0, 0.411406
1284.0, 0.406592
1286.0, 0.40319
1288.0, 0.40224
1290.0, 0.397701
1292.0, 0.393929
1294.0, 0.391823
1296.0, 0.388361
1298.0, 0.382395
1300.0, 0.378462
1302.0, 0.374832
1304, 0.0
1306, 0.0
1308, 0.0
1310, 0.0
1312, 0.0
1314, 0.0
1316, 0.0
1318, 0.0
1320, 0.0
1322, 0.0
1324, 0.0
1326, 0.0
1328, 0.0
1330, 0.0
1332, 0.0
1334, 0.0
1336, 0.0
1338, 0.0
1340, 0.0
1342, 0.0
1344, 0.0
1346, 0.0
1348, 0.0
1350, 0.0
1352, 0.0
1354, 0.0
1356, 0.0
1358, 0.0
1360, 0.0
1362, 0.0
1364, 0.0
1366, 0.0
1368, 0.0
1370, 0.0
1372, 0.0
1374, 0.0
1376, 0.0
1378, 0.0
1380, 0.0
1382, 0.0
1384, 0.0
1386, 0.0
1388, 0.0
1390, 0.0
1392, 0.0
1394, 0.0
1396, 0.0
1398, 0.0
1400, 0.0
1402, 0.0
1404, 0.0
1406, 0.0
1408, 0.0
1410, 0.0
1412, 0.0
1414, 0.0
1416, 0.0
1418, 0.0
1420, 0.0
1422, 0.0
1424, 0.0
1426, 0.0
1428, 0.0
1430, 0.0
1432, 0.0
1434, 0.0
1436, 0.0
1438, 0.0
1440, 0.0
1442, 0.0
1444, 0.0
1446, 0.0
1448, 0.0
1450, 0.0
1452, 0.0
1454, 0.0
1456, 0.0
1458, 0.0
1460, 0.0
1462, 0.0
1464, 0.0
1466, 0.0
1468, 0.0
1470, 0.0
1472, 0.0
1474, 0.0
1476, 0.0
1478, 0.0
1480, 0.0
1482, 0.0
1484, 0.0
1486, 0.0
1488, 0.0
1490, 0.0
1492, 0.0
1494, 0.0
1496, 0.0
1498, 0.0
1500, 0.0
1502, 0.0
1504, 0.0
1506, 0.0
1508, 0.0
1510, 0.0
1512, 0.0
1514, 0.0
1516, 0.0
1518, 0.0
1520, 0.0
1522, 0.0
1524, 0.0
1526, 0.0
1528, 0.0
1530, 0.0
1532, 0.0
1534, 0.0
1536, 0.0
1538, 0.0
1540, 0.0
1542, 0.0
1544, 0.0
1546, 0.0
1548, 0.0
1550, 0.0
1552, 0.0
1554, 0.0
1556, 0.0
1558, 0.0
1560, 0.0
1562, 0.0
1564, 0.0
1566, 0.0
1568, 0.0
1570, 0.0
1572, 0.0
1574, 0.0
1576, 0.0
1578, 0.0
1580, 0.0
1582, 0.0
1584, 0.0
1586, 0.0
1588, 0.0
1590, 0.0
1592, 0.0
1594, 0.0
1596, 0.0
1598, 0.0
1599, 0.0