File: raw data/Dataset_2/GlassSm/GlassSm__R110078__Raman__780__0__unoriented__Raman_Data_Processed__35492.txt
30, 0.0
32, 0.0
34, 0.0
36, 0.0
38, 0.0
40, 0.0
42, 0.0
44, 0.0
46, 0.0
48, 0.0
50, 0.0
52, 0.0
54, 0.0
56, 0.0
58, 0.0
60, 0.0
62, 0.0
64, 0.0
66, 0.0
68, 0.0
70, 0.0
72, 0.0
74, 0.0
76, 0.0
78, 0.0
80, 0.0
82, 0.0
84, 0.0
86, 0.0
88, 0.0
90, 0.0
92, 0.0
94, 0.0
96.0, 0.998716
98.0, 0.983112
100.0, 0.95674
102.0, 0.946501
104.0, 0.942793
106.0, 0.935413
108.0, 0.93141
110.0, 0.922944
112.0, 0.912642
114.0, 0.915504
116.0, 0.910479
118.0, 0.905243
120.0, 0.89932
122.0, 0.898548
124.0, 0.888762
126.0, 0.88853
128.0, 0.880317
130.0, 0.874206
132.0, 0.865882
134.0, 0.856277
136.0, 0.857183
138.0, 0.855952
140.0, 0.851101
142.0, 0.843382
144.0, 0.842432
146.0, 0.837232
148.0, 0.835638
150.0, 0.823589
152.0, 0.827445
154.0, 0.822284
156.0, 0.819649
158.0, 0.814611
160.0, 0.810192
162.0, 0.805877
164.0, 0.803611
166.0, 0.799814
168.0, 0.792857
170.0, 0.792943
172.0, 0.787879
174.0, 0.78831
176.0, 0.785025
178.0, 0.778857
180.0, 0.778887
182.0, 0.773023
184.0, 0.772928
186.0, 0.767147
188.0, 0.768725
190.0, 0.766355
192.0, 0.760356
194.0, 0.760356
196.0, 0.756774
198.0, 0.751291
200.0, 0.755969
202.0, 0.748353
204.0, 0.744258
206.0, 0.742513
208.0, 0.740972
210.0, 0.738459
212.0, 0.738016
214.0, 0.735903
216.0, 0.731673
218.0, 0.732757
220.0, 0.731379
222.0, 0.725867
224.0, 0.727988
226.0, 0.725119
228.0, 0.718714
230.0, 0.718184
232.0, 0.71489
234.0, 0.716366
236.0, 0.713506
238.0, 0.709346
240.0, 0.710714
242.0, 0.710936
244.0, 0.705861
246.0, 0.708523
248.0, 0.702669
250.0, 0.70104
252.0, 0.697234
254.0, 0.695283
256.0, 0.693924
258.0, 0.693822
260.0, 0.694907
262.0, 0.691368
264.0, 0.690388
266.0, 0.68749
268.0, 0.687719
270.0, 0.689085
272.0, 0.683052
274.0, 0.681796
276.0, 0.68259
278.0, 0.68447
280.0, 0.67721
282.0, 0.67733
284.0, 0.67786
286.0, 0.676321
288.0, 0.6723
290.0, 0.672808
292.0, 0.669455
294.0, 0.668314
296.0, 0.671295
298.0, 0.663802
300.0, 0.66619
302.0, 0.666834
304.0, 0.66242
306.0, 0.663823
308.0, 0.66409
310.0, 0.661761
312.0, 0.66499
314.0, 0.660015
316.0, 0.662884
318.0, 0.662939
320.0, 0.660272
322.0, 0.657378
324.0, 0.655976
326.0, 0.653808
328.0, 0.65914
330.0, 0.658575
332.0, 0.649956
334.0, 0.656298
336.0, 0.65449
338.0, 0.649971
340.0, 0.654664
342.0, 0.650857
344.0, 0.654009
346.0, 0.651112
348.0, 0.654462
350.0, 0.649678
352.0, 0.649218
354.0, 0.650403
356.0, 0.650498
358.0, 0.654389
360.0, 0.651489
362.0, 0.644758
364.0, 0.644291
366.0, 0.642102
368.0, 0.641132
370.0, 0.641225
372.0, 0.638432
374.0, 0.636068
376.0, 0.637998
378.0, 0.633966
380.0, 0.633813
382.0, 0.636086
384.0, 0.634061
386.0, 0.632576
388.0, 0.629679
390.0, 0.630355
392.0, 0.628777
394.0, 0.626746
396.0, 0.626667
398.0, 0.623866
400.0, 0.622109
402.0, 0.628713
404.0, 0.623523
406.0, 0.619322
408.0, 0.615652
410.0, 0.620955
412.0, 0.622457
414.0, 0.619425
416.0, 0.62237
418.0, 0.618284
420.0, 0.621739
422.0, 0.619678
424.0, 0.622303
426.0, 0.621789
428.0, 0.619607
430.0, 0.622179
432.0, 0.621709
434.0, 0.621117
436.0, 0.620968
438.0, 0.623574
440.0, 0.621585
442.0, 0.619986
444.0, 0.620374
446.0, 0.621011
448.0, 0.619918
450.0, 0.620403
452.0, 0.61808
454.0, 0.616563
456.0, 0.619267
458.0, 0.620798
460.0, 0.617723
462.0, 0.621666
464.0, 0.613583
466.0, 0.613634
468.0, 0.620215
470.0, 0.614116
472.0, 0.611688
474.0, 0.613213
476.0, 0.611823
478.0, 0.612454
480.0, 0.607722
482.0, 0.60699
484.0, 0.607511
486.0, 0.608
488.0, 0.60886
490.0, 0.605858
492.0, 0.605082
494.0, 0.602635
496.0, 0.602466
498.0, 0.603429
500.0, 0.599054
502.0, 0.596331
504.0, 0.595172
506.0, 0.593191
508.0, 0.593143
510.0, 0.588036
512.0, 0.587515
514.0, 0.579901
516.0, 0.579282
518.0, 0.573724
520.0, 0.570588
522.0, 0.563079
524.0, 0.563389
526.0, 0.552353
528.0, 0.551196
530.0, 0.543504
532.0, 0.544029
534.0, 0.533377
536.0, 0.533655
538.0, 0.522695
540.0, 0.516543
542.0, 0.512868
544.0, 0.510641
546.0, 0.506501
548.0, 0.499077
550.0, 0.497497
552.0, 0.494675
554.0, 0.489335
556.0, 0.482505
558.0, 0.483276
560.0, 0.482419
562.0, 0.475433
564.0, 0.474464
566.0, 0.470102
568.0, 0.470205
570.0, 0.465174
572.0, 0.459912
574.0, 0.45288
576.0, 0.452254
578.0, 0.44629
580.0, 0.440663
582.0, 0.436006
584.0, 0.429913
586.0, 0.425768
588.0, 0.419069
590.0, 0.416542
592.0, 0.412334
594.0, 0.404385
596.0, 0.399662
598.0, 0.389687
600.0, 0.387993
602.0, 0.382866
604.0, 0.37602
606.0, 0.371508
608.0, 0.366481
610.0, 0.362741
612.0, 0.36013
614.0, 0.354329
616.0, 0.352114
618.0, 0.348172
620.0, 0.344845
622.0, 0.340073
624.0, 0.342168
626.0, 0.335779
628.0, 0.335914
630.0, 0.327947
632.0, 0.328594
634.0, 0.325076
636.0, 0.324343
638.0, 0.320413
640.0, 0.318247
642.0, 0.316858
644.0, 0.31569
646.0, 0.315951
648.0, 0.309352
650.0, 0.3088
652.0, 0.304854
654.0, 0.299858
656.0, 0.298849
658.0, 0.293083
660.0, 0.286916
662.0, 0.282434
664.0, 0.280597
666.0, 0.278231
668.0, 0.270795
670.0, 0.269105
672.0, 0.263843
674.0, 0.263709
676.0, 0.258469
678.0, 0.251517
680.0, 0.248704
682.0, 0.243136
684.0, 0.235721
686.0, 0.233927
688.0, 0.228222
690.0, 0.224533
692.0, 0.218416
694.0, 0.213521
696.0, 0.210491
698.0, 0.205511
700.0, 0.196662
702.0, 0.196895
704.0, 0.194929
706.0, 0.19131
708.0, 0.186195
710.0, 0.181581
712.0, 0.180542
714.0, 0.175493
716.0, 0.172236
718.0, 0.168329
720.0, 0.169409
722.0, 0.159491
724.0, 0.159452
726.0, 0.157826
728.0, 0.158678
730.0, 0.154328
732.0, 0.150373
734.0, 0.145668
736.0, 0.141556
738.0, 0.140417
740.0, 0.138065
742.0, 0.133652
744.0, 0.133735
746.0, 0.129323
748.0, 0.125746
750.0, 0.124377
752.0, 0.121099
754.0, 0.12124
756.0, 0.116287
758.0, 0.112614
760.0, 0.112167
762.0, 0.110641
764.0, 0.106017
766.0, 0.105552
768.0, 0.101732
770.0, 0.0995983
772.0, 0.0984142
774.0, 0.0961686
776.0, 0.092822
778.0, 0.0905327
780.0, 0.084459
782.0, 0.0834477
784.0, 0.0824049
786.0, 0.080759
788.0, 0.075737
790.0, 0.0741713
792.0, 0.0742745
794.0, 0.0674248
796.0, 0.0651701
798.0, 0.0640067
800.0, 0.0585534
802.0, 0.0547186
804.0, 0.053586
806.0, 0.0512255
808.0, 0.0497067
810.0, 0.0478571
812.0, 0.0468735
814.0, 0.0426067
816.0, 0.0415952
818.0, 0.0381339
820.0, 0.0395002
822.0, 0.0424275
824.0, 0.0404874
826.0, 0.037109
828.0, 0.0414718
830.0, 0.0417846
832.0, 0.0450457
834.0, 0.0472428
836.0, 0.0459423
838.0, 0.0520782
840.0, 0.0516529
842.0, 0.0579341
844.0, 0.0611235
846.0, 0.0608044
848.0, 0.0687148
850.0, 0.0727681
852.0, 0.0768196
854.0, 0.083781
856.0, 0.0876643
858.0, 0.0910736
860.0, 0.0971318
862.0, 0.102185
864.0, 0.105081
866.0, 0.115974
868.0, 0.118476
870.0, 0.123578
872.0, 0.132384
874.0, 0.13672
876.0, 0.139798
878.0, 0.146611
880.0, 0.153972
882.0, 0.15591
884.0, 0.162403
886.0, 0.167753
888.0, 0.171711
890.0, 0.175613
892.0, 0.181967
894.0, 0.187519
896.0, 0.19161
898.0, 0.196641
900.0, 0.205389
902.0, 0.208465
904.0, 0.212031
906.0, 0.219812
908.0, 0.224774
910.0, 0.229225
912.0, 0.234311
914.0, 0.238159
916.0, 0.23971
918.0, 0.246182
920.0, 0.256444
922.0, 0.253248
924.0, 0.259498
926.0, 0.262952
928.0, 0.264812
930.0, 0.26946
932.0, 0.273679
934.0, 0.278218
936.0, 0.277291
938.0, 0.284596
940.0, 0.28374
942.0, 0.293408
944.0, 0.289618
946.0, 0.29021
948.0, 0.290719
950.0, 0.296562
952.0, 0.2997
954.0, 0.303314
956.0, 0.302085
958.0, 0.303245
960.0, 0.302657
962.0, 0.307982
964.0, 0.310303
966.0, 0.308895
968.0, 0.30905
970.0, 0.312868
972.0, 0.315425
974.0, 0.31501
976.0, 0.315736
978.0, 0.318578
980.0, 0.317901
982.0, 0.316153
984.0, 0.318264
986.0, 0.321155
988.0, 0.320823
990.0, 0.323982
992.0, 0.322998
994.0, 0.32222
996.0, 0.323986
998.0, 0.321099
1000.0, 0.323857
1002.0, 0.322066
1004.0, 0.31872
1006.0, 0.316391
1008.0, 0.320874
1010.0, 0.316304
1012.0, 0.320956
1014.0, 0.314611
1016.0, 0.316726
1018.0, 0.310904
1020.0, 0.307272
1022.0, 0.309824
1024.0, 0.303309
1026.0, 0.301583
1028.0, 0.299241
1030.0, 0.293873
1032.0, 0.290236
1034.0, 0.288761
1036.0, 0.286864
1038.0, 0.276479
1040.0, 0.274604
1042.0, 0.268712
1044.0, 0.260725
1046.0, 0.257677
1048.0, 0.255818
1050.0, 0.245725
1052.0, 0.240087
1054.0, 0.23736
1056.0, 0.224727
1058.0, 0.221262
1060.0, 0.219076
1062.0, 0.211927
1064.0, 0.206867
1066.0, 0.195923
1068.0, 0.191431
1070.0, 0.185591
1072.0, 0.178316
1074.0, 0.169556
1076.0, 0.163743
1078.0, 0.161365
1080.0, 0.154984
1082.0, 0.147026
1084.0, 0.143598
1086.0, 0.132578
1088.0, 0.127556
1090.0, 0.12252
1092.0, 0.118631
1094.0, 0.110798
1096.0, 0.104784
1098.0, 0.0988222
1100.0, 0.0960446
1102.0, 0.0916878
1104.0, 0.0848471
1106.0, 0.0834486
1108.0, 0.0838525
1110.0, 0.0733701
1112.0, 0.0726485
1114.0, 0.0668543
1116.0, 0.061175
1118.0, 0.0634744
1120.0, 0.0574184
1122.0, 0.0566217
1124.0, 0.0518262
1126.0, 0.0482482
1128.0, 0.0471231
1130.0, 0.045796
1132.0, 0.0461035
1134.0, 0.0386756
1136.0, 0.039419
1138.0, 0.0352619
1140.0, 0.0377197
1142.0, 0.032026
1144.0, 0.0320794
1146.0, 0.0309325
1148.0, 0.0304938
1150.0, 0.0278116
1152.0, 0.0270099
1154.0, 0.0267032
1156.0, 0.0259662
1158.0, 0.0212263
1160.0, 0.0207253
1162.0, 0.0213915
1164.0, 0.0209462
1166.0, 0.0205175
1168.0, 0.0169908
1170.0, 0.0177566
1172.0, 0.0143178
1174.0, 0.013991
1176.0, 0.017101
1178.0, 0.0144428
1180.0, 0.0138307
1182.0, 0.0126766
1184.0, 0.0134443
1186.0, 0.010226
1188.0, 0.0117352
1190.0, 0.00972096
1192.0, 0.00736494
1194.0, 0.0121685
1196.0, 0.00922191
1198.0, 0.00884312
1200.0, 0.00737777
1202.0, 0.00922816
1204.0, 0.00763593
1206.0, 0.00773171
1208.0, 0.005879
1210.0, 0.00747819
1212.0, 0.00927436
1214.0, 0.00291216
1216.0, 0.00311719
1218.0, 0.00267383
1220.0, 0.00359646
1222.0, 0.00300055
1224.0, 0.000388798
1226.0, 0.00481511
1228.0, 0.00364405
1230.0, 0.0079319
1232.0, 0.00358085
1234.0, 0.00445784
1236.0, 0.000385292
1238.0, 0.00723275
1240.0, 0.00554989
1242.0, 0.00394606
1244.0, 0.00670873
1246.0, 0.00682744
1248.0, 0.0101528
1250.0, 0.0062276
1252.0, 0.00913867
1254.0, 0.0045775
1256.0, 0.00618447
1258.0, 0.00727617
1260.0, 0.00795788
1262.0, 0.00596192
1264.0, 0.00466423
1266.0, 0.00814403
1268.0, 0.00641625
1270.0, 0.0070287
1272.0, 0.0106204
1274.0, 0.00662263
1276.0, 0.00761944
1278.0, 0.0093431
1280.0, 0.00754338
1282.0, 0.00782883
1284.0, 0.00670462
1286, 0.0
1288, 0.0
1290, 0.0
1292, 0.0
1294, 0.0
1296, 0.0
1298, 0.0
1300, 0.0
1302, 0.0
1304, 0.0
1306, 0.0
1308, 0.0
1310, 0.0
1312, 0.0
1314, 0.0
1316, 0.0
1318, 0.0
1320, 0.0
1322, 0.0
1324, 0.0
1326, 0.0
1328, 0.0
1330, 0.0
1332, 0.0
1334, 0.0
1336, 0.0
1338, 0.0
1340, 0.0
1342, 0.0
1344, 0.0
1346, 0.0
1348, 0.0
1350, 0.0
1352, 0.0
1354, 0.0
1356, 0.0
1358, 0.0
1360, 0.0
1362, 0.0
1364, 0.0
1366, 0.0
1368, 0.0
1370, 0.0
1372, 0.0
1374, 0.0
1376, 0.0
1378, 0.0
1380, 0.0
1382, 0.0
1384, 0.0
1386, 0.0
1388, 0.0
1390, 0.0
1392, 0.0
1394, 0.0
1396, 0.0
1398, 0.0
1400, 0.0
1402, 0.0
1404, 0.0
1406, 0.0
1408, 0.0
1410, 0.0
1412, 0.0
1414, 0.0
1416, 0.0
1418, 0.0
1420, 0.0
1422, 0.0
1424, 0.0
1426, 0.0
1428, 0.0
1430, 0.0
1432, 0.0
1434, 0.0
1436, 0.0
1438, 0.0
1440, 0.0
1442, 0.0
1444, 0.0
1446, 0.0
1448, 0.0
1450, 0.0
1452, 0.0
1454, 0.0
1456, 0.0
1458, 0.0
1460, 0.0
1462, 0.0
1464, 0.0
1466, 0.0
1468, 0.0
1470, 0.0
1472, 0.0
1474, 0.0
1476, 0.0
1478, 0.0
1480, 0.0
1482, 0.0
1484, 0.0
1486, 0.0
1488, 0.0
1490, 0.0
1492, 0.0
1494, 0.0
1496, 0.0
1498, 0.0
1500, 0.0
1502, 0.0
1504, 0.0
1506, 0.0
1508, 0.0
1510, 0.0
1512, 0.0
1514, 0.0
1516, 0.0
1518, 0.0
1520, 0.0
1522, 0.0
1524, 0.0
1526, 0.0
1528, 0.0
1530, 0.0
1532, 0.0
1534, 0.0
1536, 0.0
1538, 0.0
1540, 0.0
1542, 0.0
1544, 0.0
1546, 0.0
1548, 0.0
1550, 0.0
1552, 0.0
1554, 0.0
1556, 0.0
1558, 0.0
1560, 0.0
1562, 0.0
1564, 0.0
1566, 0.0
1568, 0.0
1570, 0.0
1572, 0.0
1574, 0.0
1576, 0.0
1578, 0.0
1580, 0.0
1582, 0.0
1584, 0.0
1586, 0.0
1588, 0.0
1590, 0.0
1592, 0.0
1594, 0.0
1596, 0.0
1598, 0.0
1599, 0.0